"Time (s)","Linear Acceleration x (m/s^2)","Linear Acceleration y (m/s^2)","Linear Acceleration z (m/s^2)"
3.492129900E-2,-2.642020583E-3,-2.019453049E-2,1.059312820E-1
4.496152600E-2,-2.718091011E-3,-1.581144333E-2,8.467006683E-2
5.500175300E-2,-9.451806545E-4,-1.001358032E-2,5.207252502E-2
6.507249700E-2,-1.022785902E-3,-8.397817612E-3,4.567050934E-2
7.511272400E-2,-1.403838396E-3,-9.153246880E-3,4.952335358E-2
8.515295100E-2,-1.854360104E-3,-1.378881931E-2,7.340240479E-2
9.519317700E-2,-2.596005797E-3,-2.094864845E-2,1.116409302E-1
1.052334050E-1,-6.586208940E-3,-2.065277100E-2,8.922004700E-2
1.152736320E-1,-1.718118787E-3,-1.204574108E-2,6.372261047E-2
1.253138580E-1,-2.279028296E-3,-1.560664177E-2,8.206176758E-2
1.353540850E-1,-3.629177809E-4,-9.940147400E-3,5.161094666E-2
1.454248290E-1,-1.477509737E-3,-9.583353996E-3,4.983615875E-2
1.554650560E-1,-1.481622458E-4,-6.518006325E-3,3.175926208E-2
1.655052830E-1,-1.413553953E-3,-9.206652641E-3,4.878234863E-2
1.755455100E-1,-7.021129131E-4,-4.695653915E-3,2.497768402E-2
1.855857370E-1,-3.964543343E-3,-2.592778206E-2,1.391820908E-1
1.956259640E-1,-2.696260810E-3,-2.279365063E-2,1.200056076E-1
2.056661900E-1,-2.907946706E-3,-3.469908237E-2,1.876468658E-1
2.157064170E-1,-1.617789268E-3,-1.260972023E-2,6.991195679E-2
2.257771620E-1,-8.085966110E-4,-4.431366920E-3,2.948760986E-2
2.358173880E-1,-7.102787495E-4,-2.991676331E-3,1.727104187E-2
2.458576160E-1,-9.376704693E-4,-8.604168892E-3,4.940414429E-2
2.558978430E-1,-8.209496737E-4,-1.276838779E-2,6.825160980E-2
2.659380690E-1,3.162175417E-4,3.243565559E-3,-1.893806458E-2
2.759782960E-1,-2.834826708E-3,-1.703310013E-2,9.879970551E-2
2.860185230E-1,-2.120614052E-3,-2.465152740E-2,1.432228088E-1
2.960892670E-1,-4.748955369E-3,-4.625368118E-2,2.761917114E-1
3.061294940E-1,-1.875296235E-3,-1.373255253E-2,7.985305786E-2
3.161697210E-1,-2.269029617E-2,-1.593780518E-2,-7.513999939E-3
3.262099480E-1,-6.648519635E-2,-1.792442799E-2,-5.416965485E-2
3.362501750E-1,-5.137839913E-2,-4.431390762E-2,-2.629280090E-2
3.462904010E-1,-9.011881053E-2,-6.434690952E-2,2.331733704E-3
3.563306280E-1,-1.552488953E-1,-1.732027531E-1,4.424095154E-3
3.663708560E-1,2.937422693E-2,-6.820142269E-2,1.025342941E-1
3.764415990E-1,3.751948476E-2,-1.201534271E-2,5.200672150E-2
3.864818270E-1,-8.074209094E-3,-2.522337437E-2,1.758346558E-1
3.965220530E-1,3.953896463E-2,-4.647743702E-2,1.343135834E-1
4.065622800E-1,2.954715490E-2,-3.277301788E-2,1.285448074E-1
4.166025070E-1,-1.609236002E-3,-2.911341190E-2,2.694225311E-2
4.266427330E-1,4.449139535E-2,-8.124101162E-2,-9.720802307E-3
4.366829610E-1,-1.778192818E-2,-9.836995602E-2,1.136589050E-2
4.467537050E-1,4.134748876E-2,-1.230723858E-1,-1.271820068E-2
4.567939320E-1,-2.022281289E-2,-1.336983442E-1,7.371139526E-2
4.668341590E-1,3.111243248E-2,-1.071197987E-1,4.020500183E-2
4.768743860E-1,-3.125463426E-2,-8.095061779E-2,1.116008759E-1
4.869146120E-1,1.550978422E-2,-2.074956894E-2,2.225208282E-2
4.969548390E-1,2.094203234E-2,-5.221831799E-2,1.075553894E-1
5.070255830E-1,-8.997738361E-3,-4.805314541E-2,4.438495636E-2
5.170658100E-1,3.030967712E-2,-3.726172447E-2,8.646965027E-2
5.271060380E-1,2.725437284E-3,-1.028525829E-2,8.058166504E-2
5.371462640E-1,2.257238328E-2,-7.340550423E-3,5.552101135E-2
5.471864910E-1,-5.463466048E-3,1.444697380E-2,1.261835098E-1
5.572267180E-1,5.153028667E-2,4.061543941E-2,-4.350662231E-3
5.672974620E-1,8.654683828E-3,6.806099415E-2,1.331062317E-1
5.773376890E-1,-1.105522364E-1,-3.061401844E-2,7.001686096E-2
5.873779160E-1,-9.348958731E-3,-2.439188957E-2,1.216897964E-1
5.974181430E-1,3.444708884E-2,3.928267956E-2,-7.562828064E-2
6.074583700E-1,2.835519612E-2,-2.481460571E-2,-1.122388840E-1
6.174985970E-1,-1.423797011E-2,-2.894973755E-2,-4.067897797E-2
6.275388230E-1,7.159520686E-2,-4.543852806E-2,2.878856659E-2
6.376095680E-1,-2.166438103E-2,-4.992508888E-2,1.413660049E-1
6.476497940E-1,1.682838798E-2,-5.057191849E-2,1.198005676E-2
6.576900210E-1,-2.789624035E-2,-7.406997681E-2,1.002721786E-1
6.677302490E-1,3.009538352E-2,-4.102468491E-2,-1.509284973E-2
6.777704750E-1,-2.690452337E-2,-4.863405228E-2,2.756786346E-2
6.878107020E-1,1.324312389E-2,-3.683483601E-2,9.658622742E-2
6.978509290E-1,6.128616631E-2,1.046657562E-3,9.370613098E-2
7.079216730E-1,-1.373274624E-2,-5.385863781E-2,5.982303619E-2
7.179619000E-1,-2.355921268E-2,-5.606222153E-2,6.426239014E-2
7.280021270E-1,1.863557100E-2,-6.082546711E-2,8.302879333E-2
7.380423540E-1,-3.206130862E-2,-6.088840961E-2,7.545566559E-2
7.480825810E-1,-3.682719171E-2,-7.228386402E-2,2.250099182E-2
7.581228080E-1,1.009777188E-2,-5.571830273E-2,1.010894775E-2
7.681630340E-1,-2.435296774E-4,-4.409623146E-2,2.403450012E-2
7.782032610E-1,1.744925976E-3,-3.478527069E-2,4.995155334E-2
7.882740050E-1,1.101908088E-2,-3.828406334E-3,6.151962280E-2
7.983142320E-1,3.400588036E-2,2.328157425E-4,5.144405365E-2
8.083544600E-1,3.094691038E-2,-2.964377403E-3,1.263237000E-2
8.183946860E-1,-9.835824370E-3,-2.993810177E-2,3.610706329E-2
8.284349130E-1,1.375536621E-2,-4.213666916E-2,4.288196564E-2
8.384751400E-1,6.029233336E-3,-4.232490063E-2,5.684185028E-2
8.485153660E-1,2.179287374E-2,-5.621218681E-2,2.780056000E-2
8.585861110E-1,3.053545952E-2,-2.531039715E-2,5.372238159E-2
8.686263380E-1,1.575469971E-2,-2.553343773E-2,6.289291382E-2
8.786665650E-1,1.313818991E-2,-1.149177551E-2,5.289840698E-2
8.887067920E-1,-2.992753685E-2,-2.836954594E-2,4.772949219E-2
8.987470190E-1,3.219872713E-3,-3.100442886E-2,4.492950439E-2
9.087872450E-1,-1.129689813E-2,-1.944911480E-2,5.886745453E-2
9.188274720E-1,1.464416087E-2,-1.528656483E-2,5.122089386E-2
9.288677000E-1,9.067252278E-3,-3.477168083E-2,3.164291382E-2
9.389384430E-1,-3.618150949E-3,-2.359032631E-2,5.509471893E-2
9.489786710E-1,2.001938224E-2,-1.450550556E-2,4.268550873E-2
9.590188970E-1,2.924987674E-2,-3.831636906E-2,2.797508240E-2
9.690591240E-1,4.730722308E-2,-3.775835037E-2,1.571083069E-2
9.790993510E-1,3.217297792E-2,-2.541971207E-2,-1.333522797E-2
9.891395770E-1,-1.670613885E-3,-4.341256618E-2,1.041698456E-2
9.991798050E-1,-1.637753844E-2,-1.370060444E-2,5.329608917E-2
1.009250549E0,-9.726718068E-3,-7.451772690E-4,6.983757019E-2
1.019290776E0,-5.358308554E-4,-3.366124630E-2,1.150541306E-1
1.029331003E0,1.887202263E-3,-1.725423336E-2,1.170406342E-1
1.039371230E0,2.086304128E-2,-1.123750210E-2,5.186653137E-2
1.049411456E0,1.033490896E-2,-5.943775177E-3,-3.497314453E-2
1.059451683E0,-2.240523696E-3,-5.069017410E-3,-4.034805298E-2
1.069491911E0,-2.437144518E-3,-1.983141899E-2,-7.242202759E-3
1.079532137E0,1.906906068E-2,-3.353869915E-2,4.473686218E-3
1.089602882E0,-2.092257142E-3,-6.267774105E-2,-2.909946442E-2
1.099643108E0,1.230300963E-2,-3.263545036E-2,-1.728630066E-2
1.109683335E0,1.720933616E-2,-1.435065269E-2,5.920314789E-2
1.119723562E0,4.116147757E-4,-1.717901230E-2,1.836376190E-1
1.129763788E0,9.761631489E-3,-1.904273033E-2,1.881504059E-1
1.139804016E0,1.513183117E-3,-6.211769581E-2,-2.050971985E-2
1.149844243E0,-1.218819618E-2,-6.907248497E-2,-1.385192871E-1
1.159884469E0,-2.316497266E-2,-8.162438869E-2,4.059123993E-2
1.169955214E0,-1.452119648E-2,-4.922795296E-2,-4.817295074E-2
1.179995441E0,1.596575975E-2,-3.707408905E-2,9.070777893E-2
1.190035667E0,1.336517930E-2,-6.312012672E-3,5.713272095E-2
1.200075894E0,3.199297190E-2,-1.007711887E-2,1.215686798E-1
1.210116122E0,-8.955761790E-3,-1.820564270E-3,1.066627502E-1
1.220156348E0,1.352170706E-1,1.025302410E-1,6.232261658E-2
1.230196575E0,-4.756559432E-2,5.054378510E-2,9.968662262E-2
1.240236801E0,-4.623545706E-2,2.296435833E-2,-6.163787842E-2
1.250307546E0,-6.905019283E-3,2.289557457E-2,4.653930664E-3
1.260347773E0,4.168825597E-2,5.605828762E-2,-1.970195770E-2
1.270387999E0,-2.916634083E-2,1.338279247E-2,-5.263328552E-3
1.280428227E0,-3.551974893E-3,-2.963781357E-3,5.740737915E-2
1.290468454E0,-2.373546362E-3,-1.090347767E-2,7.715129852E-2
1.300508680E0,-1.091697812E-2,-2.873504162E-2,3.938961029E-2
1.310548907E0,-4.787132144E-3,-3.484678268E-2,-2.713298798E-2
1.320589134E0,-3.416733444E-2,-4.503262043E-2,-6.960391998E-2
1.330629361E0,-8.609160781E-3,-3.894376755E-2,-7.349205017E-2
1.340669588E0,2.779528499E-3,-3.480160236E-2,-3.147220612E-2
1.350740332E0,2.941152453E-2,-1.571202278E-2,4.691886902E-2
1.360780559E0,-3.110019863E-2,-1.341843605E-2,9.696674347E-2
1.370820786E0,-3.635609150E-2,-1.833939552E-2,1.183052063E-1
1.380861012E0,-1.425074041E-2,-3.037583828E-2,4.591941833E-2
1.390901239E0,-1.025858521E-2,-5.261230469E-2,4.968261719E-2
1.400941467E0,-1.187720895E-2,-7.512903214E-2,1.176767349E-1
1.410981693E0,-1.194617152E-2,-1.021044254E-1,9.675884247E-2
1.421021920E0,-3.835792840E-2,-1.042301655E-1,8.578300476E-3
1.431092665E0,1.865106821E-2,-9.543442726E-2,-4.864311218E-2
1.441132891E0,1.243658364E-2,-7.245969772E-2,-2.686023712E-2
1.451173118E0,1.902863383E-2,-4.098486900E-2,5.020618439E-2
1.461213345E0,3.702419996E-2,-3.032565117E-2,6.273365021E-2
1.471253572E0,4.736369848E-2,-2.813696861E-3,2.259540558E-2
1.481293799E0,7.464528829E-2,-5.724191666E-3,-1.503562927E-2
1.491334026E0,5.455605686E-2,-9.822368622E-3,-4.049682617E-2
1.501374252E0,5.402477086E-2,4.342198372E-3,-2.261734009E-2
1.511444997E0,3.153231740E-2,3.402888775E-2,7.205581665E-2
1.521485223E0,-1.677839458E-2,2.935707569E-2,9.277057648E-2
1.531525450E0,-7.150992751E-3,4.424142838E-2,1.301288605E-2
1.541565678E0,4.372000694E-4,1.705265045E-2,-2.825641632E-2
1.551605904E0,-2.569790184E-2,2.358245850E-2,-9.629249573E-3
1.561646131E0,-1.140762866E-2,1.419341564E-2,1.961708069E-3
1.571686358E0,-2.295772731E-2,-2.240061760E-3,1.630783081E-3
1.581757102E0,-7.628902793E-3,-2.337503433E-2,-1.062965393E-2
1.591797329E0,2.642691135E-3,-3.298318386E-2,-1.337528229E-2
1.601837556E0,1.480875909E-2,-2.633893490E-2,2.954483032E-3
1.611877783E0,9.727835655E-3,-1.799345016E-2,2.395820618E-2
1.621918010E0,3.497155011E-2,-2.943527699E-2,4.485130310E-2
1.631958237E0,-1.460745931E-3,-1.305377483E-2,2.730464935E-2
1.641998463E0,-1.548886299E-3,-2.095174789E-2,2.169036865E-2
1.652069208E0,-3.689125180E-2,-3.572773933E-2,8.969306946E-3
1.662109434E0,-2.928376198E-2,-5.467605591E-2,2.988052368E-2
1.672149661E0,-4.537387192E-2,-6.809628010E-2,1.502609253E-2
1.682189889E0,-1.899185777E-2,-7.394325733E-2,2.178478241E-2
1.692230115E0,-1.667489111E-2,-8.372151852E-2,1.434230804E-2
1.702270342E0,-1.246182621E-2,-7.027947903E-2,1.874446869E-2
1.712310569E0,-1.783171296E-2,-7.629954815E-2,4.225826263E-2
1.722381313E0,-1.829048991E-2,-3.832614422E-2,6.551647186E-2
1.732421540E0,-2.539794147E-2,-4.839181900E-2,5.764579773E-2
1.742461767E0,-5.972951651E-3,-5.152738094E-2,4.016590118E-2
1.752501994E0,1.387000084E-3,-1.941859722E-2,3.933048248E-2
1.762542221E0,-5.967676640E-3,-1.623189449E-2,4.085159302E-2
1.772582448E0,5.408570170E-3,-2.514815331E-2,5.192279816E-2
1.782622674E0,1.908048987E-2,-1.249444485E-2,3.427219391E-2
1.792693419E0,2.084103227E-2,-2.365696430E-2,5.735397339E-2
1.802733645E0,2.005885541E-2,-2.046322823E-2,3.734302521E-2
1.812773872E0,4.888907075E-3,-3.169023991E-2,3.169155121E-2
1.822814100E0,1.810073853E-3,1.673161983E-2,1.643657684E-2
1.832854326E0,1.313412189E-2,1.976621151E-2,-1.187324524E-3
1.842894553E0,2.194084227E-2,8.956670761E-3,1.241779327E-2
1.852934780E0,1.159578562E-2,1.276183128E-2,3.565597534E-2
1.863005524E0,6.122022867E-3,2.374041080E-2,4.693126678E-2
1.873045751E0,7.348209620E-3,4.368066788E-2,2.216815948E-2
1.883085978E0,4.614761472E-2,4.188084602E-2,5.242347717E-2
1.893126205E0,1.894187927E-2,2.858340740E-2,8.998680115E-2
1.903166432E0,1.848992705E-2,2.235186100E-2,7.966327667E-2
1.913206659E0,-7.928311825E-3,1.067972183E-2,6.204509735E-2
1.923246885E0,-2.302759886E-2,2.209305763E-2,-1.321315765E-2
1.933317630E0,-1.475200057E-2,2.121317387E-2,2.432823181E-3
1.943357856E0,-1.388508081E-2,2.203464508E-3,4.461669922E-2
1.953398083E0,-7.953047752E-3,-1.415300369E-2,6.292438507E-2
1.963438311E0,-3.707766533E-3,-2.096295357E-3,1.176261902E-2
1.973478537E0,8.399456739E-3,-9.584426880E-5,-3.468227386E-2
1.983518764E0,1.603317261E-2,-6.159532070E-2,7.705688477E-3
1.993558991E0,3.277838230E-2,-6.544637680E-2,1.171627045E-1
2.003629735E0,2.738717198E-2,-6.605195999E-2,-5.453109741E-3
2.013669962E0,1.187857985E-2,-8.294117451E-2,-5.854606628E-2
2.023710189E0,2.645057440E-2,-7.562613487E-2,2.965164185E-2
2.033750416E0,9.790182114E-3,-8.811211586E-2,-2.064323425E-2
2.043790643E0,-2.039772272E-2,-6.068491936E-2,-3.754615784E-2
2.053830870E0,-2.618756890E-2,-4.796075821E-2,-4.731178284E-2
2.063871096E0,-5.645433068E-2,-2.600646019E-2,-2.356243134E-2
2.073941841E0,-1.486545801E-2,-1.917505264E-2,5.271053314E-2
2.083982067E0,-9.287506342E-3,-1.759433746E-2,1.217098236E-1
2.094022294E0,-1.656743884E-2,-1.471471786E-2,8.750534058E-2
2.104062522E0,2.106413245E-2,-2.280616760E-2,4.101943970E-2
2.114102748E0,-6.134033203E-3,-1.054430008E-2,7.089042664E-2
2.124142975E0,-9.030997753E-4,-1.979470253E-2,6.242942810E-2
2.134183202E0,-1.227927208E-2,-1.481032372E-2,2.521800995E-2
2.144253946E0,-1.586726308E-2,-1.190090179E-2,2.640438080E-2
2.154294173E0,-1.440063119E-2,-2.121734619E-2,2.515316010E-2
2.164334399E0,8.747220039E-3,-3.734421730E-2,-1.192188263E-2
2.174374627E0,-1.339781284E-2,1.299071312E-2,1.089038849E-1
2.184414854E0,2.158504725E-2,2.049398422E-2,-1.682281494E-2
2.194455080E0,1.129904389E-2,2.748560905E-2,1.015558243E-1
2.204495307E0,2.070498466E-2,1.356148720E-2,-9.748458862E-3
2.214535534E0,1.761841774E-2,2.989411354E-2,8.464241028E-2
2.224606278E0,-2.620428801E-2,4.380178452E-2,1.857757568E-3
2.234646505E0,2.702364326E-2,3.622364998E-2,4.549026489E-4
2.244686733E0,-3.012388945E-3,5.184102058E-2,9.706783295E-2
2.254726959E0,3.886181116E-2,3.036808968E-2,-7.156372070E-3
2.264767186E0,5.246460438E-3,3.025555611E-2,7.057762146E-2
2.274807413E0,7.145315409E-3,3.013849258E-2,1.004152298E-1
2.284847639E0,1.251825690E-2,6.267070770E-3,4.406261444E-2
2.294887867E0,1.925969124E-2,-5.602836609E-3,-3.386306763E-2
2.304958610E0,1.401376724E-2,-5.664682388E-2,-1.088714600E-2
2.314998838E0,-1.353588700E-2,-3.788328171E-2,5.052566528E-3
2.325039065E0,2.883583307E-3,-1.913762093E-2,6.656646729E-3
2.335079291E0,9.803563356E-3,-2.189540863E-2,6.813526154E-2
2.345119518E0,-2.920866013E-3,-1.537847519E-2,6.010150909E-2
2.355159745E0,2.386832237E-2,-3.159332275E-2,2.302932739E-2
2.365199972E0,5.495250225E-4,1.471519470E-3,2.404499054E-2
2.375240199E0,1.100853086E-2,-1.068425179E-2,-1.078033447E-2
2.385310944E0,2.028453350E-2,-7.598638535E-3,1.689052582E-2
2.395351170E0,-5.445480347E-3,-1.333403587E-2,4.477214813E-2
2.405391397E0,9.283214808E-3,-9.002685547E-3,5.839920044E-2
2.415431624E0,-5.435377359E-3,-4.292011261E-2,5.526065826E-2
2.425471850E0,-3.701907396E-2,-5.806684494E-3,-5.523681641E-3
2.435512078E0,-2.054858208E-2,-3.392958641E-2,-1.855087280E-2
2.445552305E0,-3.024604917E-2,-4.034757614E-2,-5.196571350E-3
2.455592531E0,-4.700452089E-3,-7.670068741E-2,1.560020447E-2
2.465663276E0,1.784932613E-2,-6.512784958E-2,3.639030457E-2
2.475703502E0,-4.339128733E-3,-6.247806549E-2,9.484291077E-3
2.485743729E0,4.432499409E-4,-2.905082703E-2,-1.268577576E-2
2.495783956E0,-1.617759466E-3,-1.465511322E-2,-6.077766418E-3
2.505824183E0,1.738098264E-2,2.141761780E-2,2.688694000E-2
2.515864410E0,2.173495293E-2,5.413293839E-3,4.801750183E-2
2.525904637E0,-2.160161734E-3,-2.710700035E-2,7.162761688E-2
2.535944863E0,1.689985394E-2,-3.368139267E-2,4.965591431E-2
2.545985091E0,-7.049441338E-3,-5.223083496E-2,3.966617584E-2
2.556055835E0,2.608695626E-2,-1.883482933E-2,7.943153381E-3
2.566096061E0,1.660531759E-2,-9.707450867E-3,9.683609009E-3
2.576136289E0,-9.343653917E-3,-1.737833023E-2,2.579784393E-2
2.586176516E0,1.302790642E-2,-5.066061020E-2,1.577568054E-2
2.596216742E0,-2.161392570E-2,-6.007671356E-2,4.646301270E-2
2.606256969E0,-2.276799083E-2,-7.414937019E-2,7.000637054E-2
2.616297197E0,-2.897110581E-2,-1.951384544E-2,3.830051422E-2
2.626367940E0,-5.026459694E-3,3.958535194E-2,-2.464580536E-2
2.636408167E0,7.764518261E-3,8.021092415E-2,-1.888275146E-3
2.646448394E0,2.428451180E-2,8.615946770E-2,6.363296509E-2
2.656488621E0,1.971322298E-2,8.217167854E-2,1.386623383E-1
2.666528848E0,-1.986575127E-2,1.899504662E-2,5.169105530E-2
2.676569074E0,-1.647838950E-2,1.755976677E-2,-3.780174255E-2
2.686609302E0,-1.048296690E-2,2.054786682E-2,-5.315303802E-2
2.696680046E0,-5.793333054E-3,-7.177114487E-3,6.332874298E-2
2.706720272E0,2.804464102E-2,-3.942489624E-2,1.583518982E-1
2.716760500E0,3.007715940E-2,-4.730248451E-2,-3.863143921E-2
2.726800727E0,1.803934574E-4,-4.766082764E-2,-1.523723602E-1
2.736840953E0,1.792910695E-2,-4.239845276E-2,9.424209595E-3
2.746881180E0,-9.377926588E-3,-6.183767319E-2,5.434608459E-2
2.756921408E0,7.943004370E-3,-4.869651794E-2,-7.277202606E-2
2.766992151E0,-2.112638950E-2,-2.819871902E-2,-1.184730530E-1
2.777032378E0,-2.286577225E-2,-5.026292801E-2,6.107044220E-2
2.787072605E0,2.797663212E-3,-3.362584114E-2,1.090917587E-1
2.797112832E0,2.130717039E-2,-2.217221260E-2,5.885696411E-2
2.807153059E0,3.571882844E-2,3.351950645E-2,5.372047424E-2
2.817193285E0,6.943944097E-2,2.190637589E-2,8.673095703E-2
2.827233513E0,4.257768393E-2,1.468896866E-3,3.143310547E-2
2.837273740E0,-3.300446272E-2,1.623630524E-4,9.722709656E-3
2.847344483E0,-3.005123138E-2,9.727478027E-5,6.015586853E-2
2.857384711E0,-5.605152249E-2,6.976127625E-4,9.640216827E-2
2.867424938E0,-1.213353276E-1,-1.094095707E-1,8.607482910E-2
2.877465164E0,5.835470557E-2,-2.135424614E-1,-4.387855530E-3
2.887505391E0,8.405083418E-2,-8.125209808E-2,-1.058673859E-2
2.897545619E0,1.182608604E-1,1.095089912E-1,6.137561798E-2
2.907585845E0,8.278313279E-2,1.938505173E-1,4.445648193E-2
2.917656589E0,-3.081139922E-2,9.743261337E-2,3.922653198E-2
2.927696816E0,-3.774213791E-2,1.309573650E-1,7.602596283E-2
2.937737043E0,-4.856231809E-2,1.246581078E-1,-2.096557617E-2
2.947777270E0,-8.345851302E-2,1.470553875E-1,7.062911987E-2
2.957817496E0,-2.546164393E-1,1.384375095E-1,1.116809845E-1
2.967857724E0,5.043175817E-2,-5.449151993E-2,7.513046265E-2
2.977928467E0,1.966616511E-1,-2.048468590E-1,1.055583954E-1
2.987968694E0,2.095672488E-2,-2.445042133E-1,9.975624084E-2
2.998008922E0,-3.419008851E-2,-2.139654160E-1,-7.630729675E-2
3.008049148E0,-4.862704873E-2,-5.223989487E-2,-1.999464035E-1
3.018089375E0,2.851834893E-2,5.879783630E-2,-1.652317047E-1
3.028129602E0,7.280731201E-2,6.243562698E-2,-1.266002655E-2
3.038169829E0,3.990229964E-2,-1.950263977E-3,2.762413025E-2
3.048240573E0,1.796072721E-2,-4.906821251E-2,1.293373108E-2
3.058280800E0,1.306989789E-2,-8.667063713E-2,9.868335724E-2
3.068321027E0,4.067635536E-2,-1.854202747E-1,5.835628510E-2
3.078361254E0,3.727370501E-2,-2.117311954E-1,5.905246735E-2
3.088401481E0,1.137185097E-2,-8.880996704E-2,8.780288696E-2
3.098441707E0,-2.848929167E-2,8.991003036E-3,3.257274628E-2
3.108512452E0,-3.504753113E-2,8.425498009E-2,-5.885601044E-2
3.118552678E0,2.627959847E-2,1.920819283E-1,-1.721801758E-1
3.128592905E0,-8.015123010E-2,2.085578442E-1,4.226398468E-2
3.138633133E0,-1.843595505E-2,9.991669655E-2,4.549121857E-2
3.148673359E0,-1.407214999E-2,2.631187439E-3,2.278137207E-2
3.158713586E0,3.679472208E-2,-9.712529182E-2,-7.889747620E-2
3.168753813E0,1.667950451E-1,-1.927685738E-2,2.289705276E-1
3.178794040E0,1.019452810E-1,-2.962851524E-2,8.692359924E-2
3.188864784E0,-7.129248977E-2,-6.383848190E-2,-1.104106903E-1
3.198905011E0,-2.630028129E-2,-7.555818558E-2,-9.733486176E-2
3.208945238E0,3.301620483E-2,-7.726311684E-2,1.502599716E-1
3.218985465E0,-2.362430096E-3,-4.723596573E-2,-8.339214325E-2
3.229025692E0,7.060080767E-3,-3.865313530E-2,5.896472931E-2
3.239065918E0,-6.318926811E-3,-3.401327133E-2,3.642749786E-2
3.249106146E0,3.766682744E-2,-2.960777283E-2,6.170463562E-2
3.259176889E0,5.945345759E-2,-3.076720238E-2,-5.214214325E-2
3.269217116E0,3.690728545E-2,-6.580352783E-5,-1.318454742E-2
3.279257344E0,4.584789276E-4,-1.575493813E-2,-3.911209106E-2
3.289297570E0,3.722405434E-2,2.719998360E-2,-2.234935760E-2
3.299337797E0,-7.146817446E-2,7.632970810E-3,-2.000331879E-2
3.309378024E0,4.106491804E-2,-7.842588425E-2,8.538150787E-2
3.319448768E0,9.192180634E-2,-1.227753162E-1,8.801746368E-2
3.329488995E0,2.103939652E-2,-9.317207336E-2,-5.533027649E-2
3.339529222E0,-6.562560797E-3,-6.320500374E-2,-2.151393890E-2
3.349569449E0,4.140797257E-2,-3.829097748E-2,5.993366241E-2
3.359609676E0,6.601548195E-2,5.506277084E-3,8.866119385E-2
3.369649903E0,-2.383008599E-2,2.760386467E-2,-9.080600739E-2
3.379690129E0,-8.470374346E-2,8.485150337E-2,-1.602315903E-1
3.389760874E0,-3.685221076E-2,7.565641403E-2,-2.352905273E-2
3.399801100E0,3.823146224E-2,3.242850304E-2,2.622127533E-1
3.409841327E0,5.544590950E-2,1.623392105E-3,1.314773560E-1
3.419881555E0,5.773863196E-2,2.148485184E-2,-1.675949097E-1
3.429921781E0,2.392330766E-2,1.071047783E-2,-5.951690674E-2
3.439962008E0,1.255959272E-2,-1.971936226E-2,1.162023544E-1
3.450032753E0,2.533164620E-2,-6.146931648E-2,4.552268982E-2
3.460072979E0,1.857575774E-2,-6.109189987E-2,-5.587673187E-2
3.470113206E0,4.447039962E-2,-5.576586723E-2,1.032447815E-2
3.480153433E0,-1.334369183E-3,-1.986145973E-2,7.158374786E-2
3.490193660E0,-3.724387288E-2,5.135774612E-3,9.655284882E-2
3.500233887E0,-2.241989970E-2,3.775668144E-2,6.123447418E-2
3.510304631E0,-4.977965355E-2,6.256961823E-2,-4.365444183E-2
3.520344858E0,1.966324449E-2,8.828067780E-2,5.192756653E-2
3.530385085E0,2.832296491E-2,6.309103966E-2,1.047687531E-1
3.540425311E0,2.596437931E-3,3.089594841E-2,8.423805237E-2
3.550465538E0,-1.273006201E-3,-5.944252014E-3,4.234409332E-2
3.560505766E0,-2.288371325E-2,-1.260709763E-2,-3.806495667E-2
3.570576509E0,-7.651597261E-3,-4.188847542E-2,-4.704380035E-2
3.580616737E0,1.462057233E-2,-1.529383659E-2,8.013725281E-3
3.590656964E0,3.475514054E-2,-1.766252518E-2,7.019710541E-2
3.600697190E0,2.087485790E-2,-2.262926102E-2,9.171581268E-2
3.610737417E0,1.585686207E-2,-6.697654724E-3,7.242679596E-2
3.620777644E0,8.314996958E-3,7.956027985E-3,1.683616638E-2
3.630817871E0,-3.605997562E-2,2.123761177E-2,3.022003174E-2
3.640888615E0,3.911107779E-3,3.088235855E-2,5.989551544E-2
3.650928842E0,4.545921087E-2,-3.379821777E-3,9.168338776E-2
3.660969069E0,3.217235208E-2,-9.439706802E-3,-3.707885742E-2
3.671009296E0,3.713402152E-2,-2.109599113E-2,-4.880905151E-2
3.681049522E0,3.288033605E-2,-3.016710281E-2,5.206871033E-2
3.691089749E0,3.404292464E-2,-5.691051483E-3,7.877254486E-2
3.701129977E0,9.255468845E-3,6.838083267E-3,-3.574752808E-2
3.711200720E0,-2.691078186E-2,3.619980812E-2,-2.076721191E-1
3.721240948E0,2.290171385E-2,3.274822235E-2,3.240585327E-2
3.731281175E0,3.616875410E-2,2.401375771E-2,1.316308975E-1
3.741321401E0,-1.088467240E-2,1.782536507E-2,3.694820404E-2
3.751361628E0,-8.969604969E-4,8.575487137E-2,4.459285736E-2
3.761401855E0,3.676900268E-2,3.440403938E-2,1.042919159E-1
3.771472599E0,2.423724532E-2,2.344346046E-2,1.112422943E-1
3.781512826E0,3.852057457E-2,-4.035472870E-3,3.449821472E-2
3.791553053E0,2.053284645E-2,1.841020584E-2,-3.030681610E-2
3.801593280E0,1.281803846E-2,9.861230850E-3,1.270580292E-2
3.811633507E0,-3.786268830E-2,2.762508392E-2,2.460479736E-2
3.821673733E0,-3.381684422E-2,2.422332764E-3,5.406379700E-3
3.831744478E0,-1.179406047E-2,-2.547240257E-2,-1.955032349E-3
3.841784704E0,4.444688559E-3,-4.611849785E-2,3.615379333E-2
3.851824931E0,2.041819692E-2,-6.865477562E-2,2.891063690E-2
3.861865159E0,3.665697575E-2,-5.083918571E-2,-4.744529724E-3
3.871905385E0,4.583251476E-2,-4.980397224E-2,2.310752869E-3
3.881945612E0,6.089240313E-3,-3.028798103E-2,3.079986572E-2
3.891985839E0,2.883642912E-2,-1.313233376E-2,1.858711243E-3
3.902026065E0,1.633775234E-2,-1.496624947E-2,-4.615020752E-2
3.912096810E0,-3.285795450E-3,-1.680541039E-2,-7.956504822E-3
3.922137037E0,2.513349056E-3,-4.446005821E-2,3.992366791E-2
3.932177264E0,2.680897713E-2,-5.757069588E-2,3.276252747E-2
3.942217491E0,3.936997056E-2,-2.821087837E-2,6.298065186E-3
3.952257718E0,2.422314882E-2,7.642030716E-3,-1.143455505E-3
3.962297944E0,3.804722428E-2,5.660057068E-4,3.697204590E-2
3.972338171E0,1.619482040E-2,2.208304405E-2,1.761054993E-2
3.982408915E0,-8.102208376E-3,1.507425308E-2,-2.323532104E-2
3.992449142E0,-2.327230573E-2,1.000714302E-2,-9.146690369E-3
4.002489370E0,-1.677358150E-2,7.124900818E-3,3.842163086E-2
4.012529596E0,-2.474331856E-2,-1.772379875E-2,1.074352264E-1
4.022569823E0,-2.059489489E-2,4.417896271E-3,7.567501068E-2
4.032610050E0,7.379889488E-3,1.589202881E-2,1.969814301E-2
4.042650276E0,2.357435226E-2,1.529979706E-2,-3.148937225E-2
4.052721021E0,2.787604928E-2,3.658699989E-2,-2.271461487E-2
4.062761248E0,1.872733235E-2,1.376080513E-2,1.999187469E-2
4.072801475E0,-1.840281487E-2,-9.916305542E-3,-4.220294952E-2
4.082841702E0,-7.835000753E-3,-1.802682877E-3,-1.425342560E-1
4.092881929E0,4.066920280E-2,2.798223495E-2,-8.961296082E-2
4.102922155E0,4.650858045E-2,1.569890976E-2,1.766815186E-1
4.112962382E0,4.449686408E-2,-8.634805679E-3,2.394218445E-1
4.123033126E0,2.239808440E-2,-1.358985901E-3,6.701564789E-2
4.133073353E0,1.626503468E-2,-8.924007416E-4,-1.490201950E-1
4.143113581E0,-6.361186504E-3,1.713275909E-3,-5.624103546E-2
4.153153807E0,-3.055050969E-2,-2.214002609E-2,5.630874634E-2
4.163194034E0,-1.924639940E-2,-2.568078041E-2,-2.718639374E-2
4.173234261E0,-6.433010101E-3,-5.390167236E-2,-1.174898148E-1
4.183274487E0,-8.393824100E-4,-1.087784767E-2,-7.864665985E-2
4.193345232E0,3.861314058E-2,-2.212643623E-2,2.984523773E-2
4.203385459E0,2.092507482E-2,-2.675056458E-3,1.502237320E-1
4.213425686E0,7.890444994E-2,1.763558388E-2,4.753017426E-2
4.223465913E0,2.186995745E-2,5.635952950E-2,1.068878174E-1
4.233506140E0,-2.249661088E-2,1.054818630E-1,-3.041076660E-2
4.243546366E0,-4.873791337E-2,8.983993530E-2,7.654953003E-2
4.253617111E0,-7.116279006E-2,7.858157158E-2,-7.470130920E-3
4.263657337E0,-5.397328734E-2,6.852221489E-2,-1.941394806E-2
4.273697564E0,-4.045262933E-2,3.561568260E-2,-2.396392822E-2
4.283737792E0,-6.140023470E-3,1.275825500E-2,-6.879806519E-3
4.293778018E0,1.572561264E-2,-2.687406540E-2,3.413105011E-2
4.303818245E0,4.393655062E-2,-4.908800125E-2,5.850791931E-2
4.313858472E0,4.772707820E-2,-7.056307793E-2,3.276443481E-2
4.323929216E0,5.605486035E-2,-5.199718475E-2,1.883506775E-2
4.333969443E0,5.934089422E-2,-3.195500374E-2,1.666259766E-2
4.344009670E0,4.875248671E-2,-1.248717308E-2,7.207870483E-3
4.354049897E0,5.224326253E-2,3.222060204E-2,4.538345337E-2
4.364090124E0,5.858904123E-2,-1.323628426E-2,-1.907348633E-5
4.374130351E0,6.510180235E-2,5.333185196E-3,-1.202487946E-2
4.384170577E0,4.755735397E-2,-9.469032288E-3,3.107738495E-2
4.394210804E0,-1.112163067E-3,2.025842667E-3,3.587532043E-2
4.404281548E0,-1.055777073E-3,-9.522438049E-4,3.820514679E-2
4.414321775E0,-3.480949998E-2,1.302003860E-2,-7.434177399E-2
4.424362003E0,-2.030658722E-2,-7.894277573E-3,-7.889461517E-2
4.434402229E0,8.813768625E-3,-1.587867737E-2,-1.618003845E-2
4.444442456E0,4.132807255E-3,-1.096987724E-2,2.758216858E-2
4.454482683E0,-1.050999761E-2,-1.576900482E-3,3.535938263E-2
4.464553427E0,4.069259763E-2,1.617431641E-2,4.044055939E-2
4.474593654E0,-1.747047901E-2,4.230618477E-2,-2.579689026E-3
4.484633881E0,-3.955155611E-3,-2.537775040E-2,5.726337433E-2
4.494674108E0,6.437933445E-2,-9.472131729E-3,7.636642456E-2
4.504714335E0,1.889467239E-5,-3.167152405E-2,4.059314728E-2
4.514754562E0,-1.360863447E-2,-3.772497177E-3,9.596824646E-3
4.524825306E0,1.289445162E-2,1.490163803E-2,-1.175594330E-2
4.534865533E0,-4.335761070E-3,4.088163376E-2,4.352188110E-2
4.544905759E0,2.198755741E-3,5.240190029E-2,4.371929169E-2
4.554945986E0,-7.483959198E-4,5.428802967E-2,7.504367828E-2
4.564986214E0,3.993541002E-3,3.563809395E-2,-1.549911499E-2
4.575026440E0,-1.721918583E-2,-1.826167107E-3,-3.651714325E-2
4.585097185E0,-1.646417379E-2,4.236459732E-3,-4.305934906E-2
4.595137412E0,-1.772752404E-2,-2.271342278E-2,2.474117279E-2
4.605177638E0,-1.177939773E-2,8.473396301E-4,4.710674286E-2
4.615217865E0,3.882631660E-2,3.121352196E-2,-9.634017944E-3
4.625258092E0,4.644900560E-3,4.922652245E-2,-5.442714691E-2
4.635298319E0,4.424184561E-3,3.362393379E-2,3.733634949E-3
4.645338546E0,2.436777949E-2,-2.424001694E-3,3.573989868E-2
4.655409290E0,4.156592488E-2,-2.876317501E-2,2.945995331E-2
4.665449517E0,3.272375464E-2,-6.163179874E-2,1.614284515E-2
4.675489744E0,1.713165641E-2,-5.657386780E-2,2.768516541E-3
4.685529970E0,-6.430736184E-2,-3.746557236E-2,4.922962189E-2
4.695570197E0,8.242756128E-3,-3.990173340E-2,-5.279350281E-2
4.705640941E0,-6.794303656E-3,-2.630412579E-2,-8.875846863E-3
4.715681168E0,-6.286650896E-3,6.306529045E-3,3.019714355E-2
4.725721396E0,1.434344053E-2,5.243301392E-3,5.483722687E-2
4.735761622E0,3.709983826E-2,6.169068813E-2,8.860588074E-2
4.745801849E0,-2.700716257E-3,3.671646118E-5,-4.723167419E-2
4.755842076E0,1.617953181E-2,3.566563129E-2,-8.414268494E-3
4.765912820E0,3.482055664E-2,4.273021221E-2,5.430889130E-2
4.775953047E0,4.358750582E-2,1.944756508E-2,1.183509827E-2
4.785993274E0,2.687001228E-2,8.422374725E-3,-1.139640808E-2
4.796033501E0,1.074865460E-2,1.899433136E-2,-1.075744629E-3
4.806073728E0,4.598170519E-3,6.437063217E-3,-9.737968445E-3
4.816113955E0,-6.775259972E-3,2.073276043E-2,-1.831054688E-2
4.826184699E0,7.210373878E-4,2.592658997E-2,-1.961612701E-2
4.836224926E0,-2.986201644E-2,2.655875683E-2,-8.895874023E-3
4.846265152E0,-1.971322298E-2,3.649282455E-2,4.966163635E-2
4.856305379E0,2.732157707E-3,1.057386398E-2,8.430480957E-2
4.866345607E0,1.584529877E-3,-2.296316624E-2,9.015274048E-2
4.876385833E0,1.893952489E-2,2.944469452E-5,-2.341270447E-3
4.886456578E0,-2.418309450E-3,1.296615601E-2,-6.619358063E-2
4.896496805E0,3.132249415E-2,1.497292519E-2,-6.042003632E-2
4.906537031E0,1.262038946E-3,3.963470459E-3,-1.128292084E-2
4.916577258E0,-2.008259296E-3,2.494096756E-2,6.898880005E-3
4.926617485E0,-1.004299521E-2,3.182590008E-2,-5.866432190E-2
4.936688229E0,-2.325329185E-2,1.247847080E-2,1.464557648E-2
4.946728456E0,-3.155738115E-3,-2.286946774E-2,2.583789825E-2
4.956768683E0,4.375606775E-2,-2.959883213E-2,1.160345078E-1
4.966808910E0,-4.682809114E-3,-2.035903931E-2,1.151247025E-1
4.976849137E0,-6.678014994E-3,-1.982295513E-2,-2.494525909E-2
4.986889363E0,-1.822356880E-2,-2.645623684E-2,-8.121109009E-2
4.996960108E0,-2.940960228E-2,-3.433251381E-2,-4.628467560E-2
5.007000335E0,1.880189776E-2,-5.755543709E-3,-7.831192017E-2
5.017040561E0,8.023673296E-2,5.134022236E-2,-1.295547485E-1
5.027080789E0,-3.697918355E-2,-2.654242516E-2,6.375217438E-2
5.037121016E0,-3.794065118E-2,-1.169526577E-2,2.215414047E-1
5.047161242E0,-4.570111632E-2,-5.250978470E-2,1.374254227E-1
5.057231987E0,3.196372092E-2,4.302024841E-3,4.262447357E-2
5.067272213E0,1.053105295E-1,6.055438519E-2,5.736064911E-2
5.077312440E0,-3.215710819E-2,3.210091591E-2,-2.807998657E-2
5.087352667E0,-2.663335204E-2,-7.239699364E-3,1.121139526E-2
5.097392894E0,-1.876708865E-2,3.394782543E-2,-3.543186188E-2
5.107433121E0,-2.433922887E-2,5.465769768E-2,-2.440929413E-2
5.117503866E0,-9.129047394E-4,5.240643024E-2,1.148223877E-3
5.127544092E0,8.101552725E-3,3.677427769E-2,-9.043693542E-3
5.137584319E0,2.638757229E-2,2.125012875E-2,9.506225586E-3
5.147624546E0,8.695036173E-3,2.484238148E-2,1.368522644E-2
5.157664772E0,7.714673877E-3,1.824259758E-3,2.260875702E-2
5.167705000E0,1.602481306E-2,-2.362501621E-2,4.349231720E-2
5.177775743E0,-4.260212183E-3,-3.458309174E-2,-9.819984436E-3
5.187815971E0,1.953259110E-3,-3.399348259E-2,1.341915131E-2
5.197856198E0,-2.275542915E-2,1.375401020E-2,1.978874207E-2
5.207896424E0,-1.862137020E-2,1.328742504E-2,1.892852783E-2
5.217936651E0,-3.736725450E-2,4.996407032E-2,-1.245498657E-3
5.227976878E0,1.439362764E-2,3.915178776E-2,3.129100800E-2
5.238017105E0,-4.116360843E-2,1.905512810E-2,1.117706299E-1
5.248087849E0,5.025029182E-3,4.213929176E-3,-1.360034943E-2
5.258128077E0,-4.842287302E-2,-2.449321747E-2,-3.112983704E-2
5.268168303E0,-1.470834017E-3,-6.078577042E-2,-1.082019806E-1
5.278208530E0,1.681345701E-2,-6.687986851E-2,-5.096626282E-2
5.288248757E0,1.375412941E-2,-4.875898361E-2,-8.048057556E-3
5.298288983E0,1.047946513E-2,-1.483571529E-2,3.710937500E-2
5.308329211E0,4.943206906E-3,3.838300705E-3,4.621791840E-2
5.318399954E0,1.869326830E-2,4.943966866E-3,2.168750763E-2
5.328440182E0,2.801749110E-2,-6.217479706E-3,-5.274772644E-3
5.338480409E0,1.834517717E-2,1.353359222E-2,3.647804260E-3
5.348520635E0,1.328748465E-2,4.951596260E-2,1.488018036E-2
5.358560862E0,-1.369148493E-3,3.582251072E-2,2.142047882E-2
5.368601089E0,1.929765940E-2,2.956748009E-2,6.440162659E-3
5.378641316E0,-8.310213685E-3,3.278386593E-2,2.734947205E-2
5.388712060E0,3.346635401E-2,1.242780685E-2,5.071163177E-2
5.398752288E0,1.146769524E-2,-3.411293030E-3,7.014274597E-3
5.408792514E0,-3.848642111E-3,-2.783894539E-3,-8.006095886E-3
5.418832741E0,-5.380883813E-3,-2.053141594E-3,-1.344585419E-2
5.428872968E0,2.188299596E-2,-9.268522263E-4,-1.163864136E-2
5.438913194E0,3.254431486E-2,-1.144027710E-2,2.613735199E-2
5.448953422E0,2.428160608E-2,-3.823065758E-2,-1.262283325E-2
5.459024165E0,2.100956440E-2,-1.055204868E-2,1.204490662E-3
5.469064393E0,-1.079291105E-2,6.803452969E-2,6.983852386E-2
5.479104620E0,-5.820690095E-2,-1.655912399E-2,-3.357982635E-2
5.489144846E0,-1.545859873E-2,3.454327583E-3,-5.443572998E-3
5.499185073E0,2.134427428E-2,3.982150555E-2,2.979183197E-2
5.509225300E0,2.506478131E-2,3.396570683E-2,-2.820491791E-2
5.519265527E0,2.946062386E-2,1.149499416E-2,-7.157325745E-3
5.529305754E0,2.977624536E-3,-1.272940636E-2,-5.162239075E-3
5.539376498E0,-2.118380368E-2,-4.582214355E-2,2.806091309E-2
5.549416725E0,-2.633684874E-2,-3.100144863E-2,3.016281128E-2
5.559456952E0,-1.255089045E-2,-1.654088497E-2,1.082420349E-3
5.569497178E0,-6.408050656E-3,-9.298324585E-6,6.752014160E-4
5.579537405E0,9.254097939E-3,-2.708077431E-3,2.651214600E-3
5.589577633E0,1.071545482E-2,9.097576141E-3,2.380561829E-2
5.599617859E0,1.490819454E-2,1.581847668E-2,4.013538361E-2
5.609688604E0,-4.249036312E-3,1.797604561E-2,-1.052665710E-2
5.619728831E0,2.630132437E-2,1.267111301E-2,-1.384735107E-3
5.629769057E0,2.108874917E-2,-2.548575401E-2,2.222251892E-2
5.639809284E0,1.134581864E-2,-1.797056198E-2,9.949684143E-3
5.649849511E0,-1.062713563E-2,-1.529467106E-2,-4.303836823E-2
5.659889738E0,-8.999004960E-3,-1.980626583E-2,-1.462936401E-2
5.669960482E0,1.746575534E-2,-1.432979107E-2,8.563613892E-2
5.680000709E0,-8.586764336E-3,8.497953415E-3,2.797317505E-2
5.690040936E0,-2.538189292E-2,4.915618896E-2,-3.501892090E-3
5.700081163E0,1.339985430E-2,1.107275486E-2,-3.014183044E-2
5.710121389E0,1.086658239E-2,-1.499438286E-2,-1.719474792E-3
5.720161616E0,5.920518935E-2,-1.176631451E-2,1.081533432E-1
5.730201844E0,-3.273867071E-2,-9.144663811E-3,-4.057025909E-2
5.740272587E0,-4.662783444E-2,-7.776021957E-3,-8.170509338E-2
5.750312815E0,-1.539294422E-2,4.361152649E-3,2.054309845E-2
5.760353042E0,4.792802036E-2,7.163047791E-3,1.060409546E-1
5.770393268E0,4.559025168E-3,-1.606941223E-3,1.126546860E-1
5.780433495E0,1.601275802E-2,2.523195744E-2,4.744148254E-2
5.790473722E0,4.106548429E-2,4.613864422E-2,-6.826877594E-2
5.800513949E0,3.047741950E-2,2.884995937E-2,-1.002016068E-1
5.810584693E0,-4.720538855E-3,1.080560684E-2,-4.328632355E-2
5.820624920E0,-1.362814009E-2,4.571676254E-3,1.398563385E-2
5.830665147E0,-4.777774215E-3,-1.290214062E-2,2.828311920E-2
5.840705374E0,-3.217969835E-2,-9.167313576E-3,-5.803012848E-2
5.850745600E0,6.330475211E-3,-1.727175713E-2,-5.815410614E-2
5.860785827E0,-1.349885762E-2,-8.344531059E-3,2.075099945E-2
5.870826055E0,1.774629951E-2,-3.735065460E-3,1.476211548E-1
5.880896798E0,9.191991389E-2,1.421034336E-2,2.290916443E-2
5.890937026E0,-3.836438060E-3,-3.711390495E-2,-3.709125519E-2
5.900977253E0,-3.544154763E-2,-3.408575058E-2,-4.654502869E-2
5.911017479E0,-1.568834484E-2,-3.010201454E-2,-6.307125092E-2
5.921057706E0,4.987269640E-3,-2.405917645E-2,-3.897190094E-2
5.931097933E0,-3.511592746E-3,1.137256622E-4,2.807331085E-2
5.941168677E0,1.651531458E-2,1.822650433E-2,3.987121582E-2
5.951208904E0,6.393089145E-2,1.083540916E-2,1.208610535E-1
5.961249131E0,1.456406713E-2,1.731646061E-2,1.012525558E-1
5.971289358E0,-2.252525091E-2,8.797049522E-3,5.043697357E-2
5.981329585E0,-1.427066326E-2,2.891349792E-2,-7.575035095E-3
5.991369811E0,6.672635674E-3,2.166223526E-2,-2.468395233E-2
6.001440556E0,9.206160903E-3,2.532553673E-2,-4.159355164E-2
6.011480783E0,-4.122421145E-3,3.734707832E-2,-2.959823608E-2
6.021521009E0,-1.718698442E-2,2.893185616E-2,-6.856918335E-4
6.031561237E0,4.721879959E-4,1.374995708E-2,2.109527588E-2
6.041601464E0,-1.140953600E-2,-2.334856987E-2,1.168727875E-2
6.051672208E0,-1.382139325E-2,-2.044296265E-2,4.048728943E-2
6.061712435E0,-3.618255258E-3,-1.785552502E-2,4.291915894E-2
6.071752661E0,-4.796355963E-3,-5.828261375E-3,3.816032410E-2
6.081792888E0,-1.623186469E-2,1.495277882E-2,1.651763916E-2
6.091833115E0,-1.874789596E-3,9.037256241E-3,-2.433967590E-2
6.101873342E0,3.043994308E-3,-2.761197090E-2,-2.443885803E-2
6.111913569E0,3.284722567E-3,-1.862275600E-2,2.576446533E-2
6.121984314E0,1.059928536E-2,-1.855897903E-2,4.014015198E-2
6.132024540E0,1.563368738E-2,-1.134407520E-2,-1.970672607E-2
6.142064767E0,1.731961966E-3,1.456475258E-2,5.685806274E-2
6.152104994E0,6.580621004E-3,1.221108437E-2,7.122993469E-2
6.162145220E0,-4.324312508E-2,3.562211990E-2,-1.502609253E-2
6.172185448E0,8.685991168E-3,-4.873037338E-3,-1.395092010E-1
6.182225675E0,-1.084554195E-2,-2.036094666E-3,-5.086994171E-2
6.192296419E0,2.762135863E-2,1.457691193E-3,-4.832172394E-2
6.202336646E0,2.990907431E-2,-4.481542110E-2,1.194925308E-1
6.212376872E0,2.013099194E-2,-1.327681541E-2,2.377700806E-2
6.222417099E0,3.395007551E-2,-3.548979759E-2,5.240535736E-2
6.232457326E0,7.647454739E-3,-2.008914948E-2,-4.529953003E-4
6.242497553E0,3.144077957E-2,-9.364962578E-3,1.852703094E-2
6.252537780E0,-6.608620286E-3,8.858799934E-3,7.347106934E-2
6.262608525E0,-3.753468394E-3,3.196537495E-2,2.548027039E-2
6.272648751E0,-1.736761630E-2,4.786455631E-2,8.616447449E-3
6.282688978E0,-9.759202600E-3,6.111061573E-2,-3.941249847E-2
6.292729205E0,-1.202595234E-2,4.624700546E-2,-2.032566071E-2
6.302769431E0,1.649948955E-2,3.467917442E-3,2.999305725E-2
6.312809659E0,2.101773024E-2,-2.454769611E-2,2.529716492E-2
6.322849886E0,-9.075105190E-4,-2.706885338E-3,2.533054352E-2
6.332884641E0,-3.719940782E-3,7.159233093E-3,-1.055145264E-2
6.342924873E0,-1.431256533E-3,-2.188563347E-3,-5.732536316E-3
6.352965104E0,5.857795477E-3,-1.389896870E-2,2.064132690E-2
6.363005336E0,5.703672767E-3,-2.550542355E-2,3.026580811E-2
6.373045567E0,-4.378080368E-2,7.378697395E-3,7.328891754E-2
6.383116316E0,1.898865402E-2,-7.144212723E-4,1.810646057E-2
6.393156547E0,-1.060141623E-2,4.779577255E-3,-8.432388306E-3
6.403196778E0,-1.122057438E-5,-6.657481194E-3,-1.106166840E-2
6.413237011E0,-4.750952125E-3,-3.242015839E-3,1.508808136E-2
6.423277242E0,1.610572636E-2,2.898454666E-3,1.253795624E-2
6.433317473E0,9.551048279E-4,-9.947061539E-3,4.339218140E-4
6.443357704E0,-5.996355414E-2,-5.735349655E-2,1.488876343E-2
6.453428453E0,2.077221870E-5,-3.379237652E-2,1.244544983E-2
6.463468685E0,-9.331598878E-3,-1.526582241E-2,1.715278625E-2
6.473508916E0,-4.445835948E-3,-1.629114151E-3,-6.887435913E-3
6.483549148E0,1.913365722E-2,2.826321125E-2,2.406311035E-2
6.493589379E0,-1.682363451E-2,1.761949062E-2,3.828239441E-2
6.503629611E0,9.622976184E-3,1.211142540E-2,2.142715454E-2
6.513669842E0,1.656942070E-2,1.358354092E-2,4.538536072E-3
6.523740591E0,-5.073234439E-3,1.762855053E-2,2.041816711E-3
6.533780822E0,1.345568895E-2,-1.886010170E-3,1.874065399E-2
6.543821053E0,2.682341635E-2,-1.644170284E-2,2.587795258E-2
6.553861286E0,-1.889443398E-2,-1.201760769E-2,2.103614807E-2
6.563901517E0,9.935081005E-3,6.513714790E-3,-2.987861633E-3
6.573941748E0,5.392059684E-3,1.276385784E-2,3.998565674E-2
6.583981979E0,3.004118800E-3,2.861464024E-2,8.739471436E-3
6.594022210E0,5.564540625E-4,5.336332321E-2,1.091766357E-2
6.604092960E0,1.269519329E-2,1.652276516E-2,-1.175880432E-3
6.614133191E0,-6.674513221E-3,-1.048862934E-2,-1.563549042E-2
6.624173423E0,-1.681436598E-2,-1.339316368E-2,-8.533477783E-3
6.634213654E0,3.961876035E-3,-2.795898914E-2,3.396987915E-3
6.644253886E0,8.229702711E-3,-1.374661922E-2,3.927898407E-2
6.654294117E0,8.168920875E-3,-1.378953457E-2,4.884910583E-2
6.664334348E0,1.566427946E-2,-2.275586128E-3,7.273578644E-2
6.674405097E0,6.091102958E-3,-7.891654968E-4,7.021903992E-2
6.684445328E0,-1.547709107E-3,3.106772900E-2,5.343437195E-3
6.694485561E0,-3.273668885E-2,1.027536392E-2,-5.712699890E-2
6.704525792E0,-3.039927781E-2,-1.739263535E-4,-7.161045074E-2
6.714566023E0,3.024652600E-3,4.551768303E-3,-1.894855499E-2
6.724606254E0,3.055408597E-3,5.119919777E-3,3.380107880E-2
6.734677003E0,-1.336282492E-2,2.716195583E-2,-1.161575317E-2
6.744717235E0,-3.498688340E-3,1.536369324E-3,-4.503345490E-2
6.754757466E0,8.995667100E-3,2.170133591E-2,1.257228851E-2
6.764797698E0,1.672454178E-2,8.899211884E-3,1.372909546E-1
6.774837929E0,2.652657032E-2,1.944792271E-2,1.086969376E-1
6.784878160E0,1.206775010E-2,-2.066063881E-2,-5.642604828E-2
6.794918392E0,-3.032386303E-5,-5.468833447E-2,-7.772064209E-2
6.804989141E0,-1.174037158E-2,-4.430103302E-2,-6.531238556E-2
6.815029372E0,-2.973562479E-2,-8.703112602E-3,-6.707763672E-2
6.825069603E0,-4.364818335E-3,1.837444305E-2,-6.390476227E-2
6.835109835E0,-9.990841150E-3,2.247714996E-2,-5.101490021E-2
6.845150067E0,1.000148058E-2,4.404568672E-2,1.032199860E-1
6.855190298E0,-2.623274922E-3,3.325557709E-2,1.642198563E-1
6.865230529E0,-6.763637066E-4,1.701498032E-2,1.102170944E-1
6.875301278E0,1.282019913E-2,2.397298813E-2,-2.768993378E-2
6.885341510E0,2.321827412E-2,3.333663940E-2,-7.222843170E-2
6.895381741E0,2.209398150E-2,2.220427990E-2,-5.914402008E-2
6.905421973E0,-1.384653151E-2,-1.824975014E-3,-5.539989471E-2
6.915462204E0,-4.614070058E-2,-4.101383686E-2,-3.506660461E-3
6.925502435E0,-1.885338128E-2,-2.761173248E-2,2.204513550E-2
6.935542667E0,-3.185589612E-2,-4.312849045E-2,3.322410583E-2
6.945613416E0,-2.583497763E-2,-6.640207767E-2,5.151176453E-2
6.955653647E0,-2.913355827E-2,-1.075375080E-1,2.451705933E-2
6.965693878E0,-1.137958467E-2,-9.310257435E-2,4.034042358E-2
6.975734110E0,2.223889530E-2,-9.794163704E-2,2.261924744E-2
6.985774342E0,3.882473707E-2,-5.014634132E-2,5.241680145E-2
6.995814573E0,5.057363212E-2,-1.547181606E-2,1.740264893E-2
7.005854804E0,5.736805499E-2,1.193547249E-2,-1.044273376E-2
7.015925553E0,5.200481415E-2,3.931534290E-2,-2.379417419E-3
7.025965784E0,3.378503025E-2,4.460000992E-2,-2.512359619E-2
7.036006016E0,2.069395781E-2,5.492174625E-2,5.034637451E-2
7.046046248E0,5.769014359E-3,3.492987156E-2,1.044130325E-1
7.056086479E0,-3.307260573E-2,4.548788071E-2,7.220649719E-2
7.066126710E0,-3.837391734E-3,1.378047466E-2,-3.171443939E-2
7.076166942E0,2.759540081E-2,-2.706372738E-2,-5.655384064E-2
7.086207173E0,1.985757053E-2,-1.920497417E-2,-3.094196320E-2
7.096277922E0,5.031946301E-2,-1.972341537E-2,2.838993073E-2
7.106318153E0,3.975886106E-2,-1.051354408E-2,5.423545837E-2
7.116358385E0,2.953435481E-2,2.628791332E-2,4.879188538E-2
7.126398617E0,1.249425113E-2,3.348076344E-2,2.522468567E-3
7.136438848E0,9.856075048E-3,6.070566177E-2,1.107883453E-2
7.146479079E0,2.358776331E-2,6.835305691E-2,2.435398102E-2
7.156519310E0,1.804393530E-2,1.027997732E-1,4.449367523E-2
7.166559543E0,1.227065921E-3,1.037276983E-1,8.859348297E-2
7.176630291E0,-4.762145877E-2,6.413483620E-2,1.345252991E-2
7.186670523E0,1.402156055E-2,1.254427433E-2,1.289558411E-2
7.196710754E0,1.282225549E-2,-3.136718273E-2,7.946014404E-2
7.206750985E0,1.603162289E-2,-3.867793083E-2,1.207160950E-2
7.216791217E0,-1.620118320E-2,-3.928840160E-2,1.026439667E-1
7.226831448E0,-4.004891217E-2,-2.055346966E-2,-1.740074158E-2
7.236871680E0,-6.810158491E-3,-3.348159790E-2,6.118679047E-2
7.246911911E0,-4.937724769E-2,-2.259743214E-2,-4.217624664E-2
7.256982660E0,-3.702938557E-3,-4.556703568E-2,7.636070251E-3
7.267022892E0,-3.598281741E-2,-1.683497429E-2,-1.478195190E-4
7.277063123E0,-3.689001501E-2,-1.459968090E-2,-7.943153381E-3
7.287103354E0,7.361575961E-3,-7.318949699E-2,1.085662842E-2
7.297143585E0,-4.509666562E-2,-7.364451885E-2,-1.326465607E-2
7.307183818E0,-1.490835845E-2,-4.633653164E-2,1.270103455E-2
7.317254566E0,-1.443558931E-2,-3.114449978E-2,1.229286194E-2
7.327294798E0,5.417643487E-2,-3.730487823E-2,2.322196960E-3
7.337335029E0,2.038507164E-2,-6.468522549E-2,2.016067505E-3
7.347375260E0,1.766493917E-2,-5.849516392E-2,-6.618499756E-4
7.357415492E0,3.872925043E-2,-3.347301483E-2,1.576137543E-2
7.367455723E0,3.606016934E-2,-3.895771503E-2,1.795482635E-2
7.377495955E0,1.703187823E-2,-4.432189465E-2,1.301383972E-2
7.387566703E0,3.365553916E-2,-2.869248390E-2,1.515674591E-2
7.397606935E0,3.308318555E-2,-1.617395878E-2,2.673816681E-2
7.407647167E0,1.799219847E-2,-8.970737457E-3,1.667785645E-2
7.417687398E0,2.888584137E-2,-4.393339157E-3,-3.005981445E-3
7.427727629E0,3.490485251E-2,3.996372223E-2,1.783847809E-2
7.437767860E0,1.289972663E-2,3.656566143E-2,-1.964569092E-3
7.447808093E0,2.224716544E-2,1.644968987E-2,1.656055450E-2
7.457878841E0,-1.160302758E-2,1.522326469E-2,2.785778046E-2
7.467919073E0,2.364280820E-2,2.207159996E-3,3.918933868E-2
7.477959304E0,2.092322707E-2,-2.240240574E-2,4.582595825E-2
7.487999535E0,1.871034503E-2,-3.930091858E-3,2.136135101E-2
7.498039767E0,-9.871155024E-3,-4.835128784E-4,2.789402008E-2
7.508079998E0,2.090215683E-3,-1.663732529E-2,3.433895111E-2
7.518120230E0,-2.434265614E-2,-1.469480991E-2,6.930160522E-2
7.528190978E0,1.068776846E-2,3.321290016E-3,5.861568451E-2
7.538231210E0,1.372241974E-2,1.581382751E-2,-2.522468567E-3
7.548271442E0,-1.219952106E-2,2.998006344E-2,3.224372864E-3
7.558311673E0,-4.211336374E-3,1.302742958E-2,9.757232666E-2
7.568351904E0,-4.075753689E-2,3.545415401E-2,1.150636673E-1
7.578392135E0,-4.438707232E-2,2.331089973E-2,2.936935425E-2
7.588432367E0,-2.177929878E-2,-1.016962528E-2,2.222824097E-2
7.598472599E0,-2.949222922E-2,-6.296038628E-3,8.863830566E-2
7.608543348E0,-3.748798370E-2,-1.634025574E-2,5.408191681E-2
7.618583579E0,-1.140609384E-2,-2.161014080E-2,-1.462249756E-1
7.628623810E0,1.777499914E-2,1.226758957E-2,-6.677532196E-2
7.638664042E0,-1.693904400E-3,-4.135370255E-4,2.729606628E-2
7.648704273E0,2.935528755E-4,-2.330374718E-2,-7.556915283E-3
7.658744505E0,2.780795097E-3,-2.755379677E-2,-9.946918488E-2
7.668784736E0,6.499171257E-3,-1.779842377E-2,-5.446052551E-2
7.678824967E0,-1.153498888E-2,-4.249107838E-2,9.727478027E-4
7.688865199E0,-7.318168879E-3,-1.842713356E-2,6.857681274E-2
7.698935948E0,1.855632663E-2,-8.825898170E-3,9.306812286E-2
7.708976179E0,1.792925596E-2,-4.469990730E-3,8.394527435E-2
7.719016410E0,6.984263659E-3,1.375329494E-2,3.878593445E-2
7.729056642E0,2.880364656E-3,3.932046890E-2,-3.957748413E-3
7.739096874E0,-1.275756955E-2,4.882407188E-2,3.006935120E-2
7.749137105E0,-2.979597449E-2,4.752349854E-2,-2.765655518E-4
7.759177336E0,-8.382171392E-3,4.129648209E-2,1.773071289E-2
7.769248085E0,-1.132240891E-2,3.905379772E-2,4.084396362E-2
7.779288316E0,-2.619177103E-3,2.783024311E-2,3.534603119E-2
7.789328548E0,-8.211791515E-3,-9.700655937E-3,1.310348511E-2
7.799368780E0,1.535278559E-2,7.170796394E-3,-2.074241638E-3
7.809409011E0,1.746916771E-2,-1.934885979E-2,6.638526917E-3
7.819449242E0,3.564611077E-2,-1.751518250E-2,1.764965057E-2
7.829489474E0,3.717237711E-2,-1.318120956E-2,2.869033813E-2
7.839560223E0,3.124070168E-2,-1.602602005E-2,4.930591583E-2
7.849600454E0,1.309475303E-2,7.635116577E-3,5.079936981E-2
7.859640685E0,1.651114225E-2,1.932096481E-2,1.159763336E-2
7.869680917E0,1.058426499E-2,1.192998886E-2,-4.912376404E-2
7.879721149E0,2.663707733E-2,1.862311363E-2,2.179813385E-2
7.889761380E0,1.430273056E-2,1.344370842E-2,8.557415009E-2
7.899801611E0,-8.540600538E-3,3.151845932E-2,1.749324799E-2
7.909872360E0,5.532413721E-3,3.494882584E-2,-7.223796844E-2
7.919912591E0,-1.048201323E-2,-2.710342407E-2,-1.075744629E-2
7.929952823E0,1.756453514E-2,-1.385712624E-2,-8.858680725E-3
7.939993055E0,-2.528280020E-3,-2.646040916E-2,-8.586311340E-2
7.950033286E0,-1.709997654E-3,-2.926707268E-2,-8.861064911E-2
7.960073517E0,1.586616039E-3,-4.388356209E-2,1.882266998E-2
7.970113749E0,3.634095192E-4,-3.195285797E-2,8.322525024E-2
7.980153980E0,1.093664765E-2,-6.508731842E-2,9.026718140E-2
7.990194212E0,2.604424953E-2,-5.772542953E-2,5.177497864E-2
8.000264960E0,7.745057344E-3,-1.827192307E-2,1.776313782E-2
8.010305192E0,-5.534917116E-3,8.347034454E-3,-2.361011505E-2
8.020345424E0,9.480118752E-4,4.626226425E-2,-1.722431183E-2
8.030385655E0,2.162906528E-2,4.544878006E-2,2.497768402E-2
8.040425886E0,3.675699234E-2,3.014087677E-2,6.233978271E-2
8.050466117E0,1.853063703E-2,-8.819103241E-3,3.034591675E-2
8.060506350E0,-8.965194225E-3,-2.410173416E-2,-1.366329193E-2
8.070546581E0,-1.487141848E-2,-4.144763947E-2,-3.364849091E-2
8.080586812E0,-4.585048556E-2,-5.585384369E-2,-1.036071777E-2
8.090657561E0,-1.525098085E-2,-5.069494247E-2,-1.361846924E-3
8.100697792E0,2.987295389E-3,-4.976153374E-2,-1.815795898E-3
8.110738024E0,4.280984402E-3,-6.228351593E-2,7.520675659E-3
8.120778255E0,-8.686065674E-3,-4.139757156E-2,2.881336212E-2
8.130818487E0,7.076442242E-3,-2.760267258E-2,3.816795349E-2
8.140858718E0,3.917783499E-3,-6.601095200E-3,1.402664185E-2
8.150898950E0,-1.422762871E-3,-2.593684196E-2,-2.828598022E-3
8.160939181E0,-1.123496890E-2,6.844282150E-3,8.794498444E-2
8.171009930E0,-1.003846526E-2,1.816701889E-2,-3.197765350E-2
8.181050161E0,1.741784811E-2,2.188277245E-2,-5.949020386E-3
8.191090392E0,-6.808042526E-3,3.980541229E-2,8.115768433E-3
8.201130625E0,2.396270633E-2,1.733231544E-2,1.028919220E-2
8.211170856E0,-7.552027702E-3,1.981735229E-3,6.991672516E-2
8.221211087E0,2.470773458E-2,-5.999326706E-3,5.065917969E-3
8.231251318E0,-1.025235653E-2,1.704883575E-2,6.469058990E-2
8.241291550E0,-2.846571803E-2,1.173663139E-2,-3.120708466E-2
8.251331782E0,-1.519632339E-2,8.934259415E-3,1.578569412E-1
8.261402530E0,-1.851564646E-2,4.044294357E-3,5.013275146E-2
8.271442762E0,-2.441668510E-2,1.790356636E-2,-6.008338928E-2
8.281482993E0,-1.184797287E-2,1.773142815E-2,-6.967830658E-2
8.291523224E0,2.537104487E-2,1.729726791E-3,9.584426880E-3
8.301563456E0,2.963307500E-2,-3.526210785E-2,1.608495712E-1
8.311603688E0,3.063234687E-2,-4.521369934E-2,1.778602600E-2
8.321643919E0,2.832689881E-2,-5.422139168E-2,-1.543998718E-1
8.331714667E0,1.260012388E-3,-2.636122704E-2,2.797985077E-2
8.341754899E0,-6.012558937E-3,-1.902937889E-2,1.484117508E-1
8.351795131E0,-1.538378000E-2,-7.812023163E-3,6.513214111E-2
8.361835362E0,-1.051390171E-2,-5.548238754E-3,-5.930137634E-2
8.371875593E0,1.099815965E-2,4.797697067E-3,-4.555702209E-3
8.381915825E0,1.390546560E-3,5.836129189E-2,4.720687866E-2
8.391956057E0,4.386863112E-2,6.588125229E-2,3.655624390E-2
8.401996288E0,3.906646371E-2,6.558227539E-2,1.618671417E-2
8.412067037E0,4.912996292E-2,3.950881958E-2,7.791519165E-4
8.422107268E0,6.859263778E-2,7.858753204E-3,-3.096961975E-2
8.432147499E0,1.414486766E-2,-6.868124008E-2,-2.838802338E-2
8.442187731E0,-1.139372587E-2,-8.008170128E-2,-1.074790955E-3
8.452227963E0,-4.864925146E-2,-9.088611603E-2,1.270294189E-2
8.462268194E0,-4.538628459E-2,-1.137945652E-1,1.274967194E-2
8.472308425E0,-3.962051868E-2,-1.006669998E-1,2.962684631E-2
8.482348657E0,-3.357422352E-2,-8.818745613E-2,3.680038452E-2
8.492419406E0,-2.971225977E-2,-5.106115341E-2,6.270027161E-2
8.502459637E0,-1.407638192E-2,-5.787611008E-3,5.470561981E-2
8.512499868E0,-7.703840733E-3,3.531122208E-2,3.906536102E-2
8.522540100E0,-4.849648476E-2,3.075337410E-2,-3.582954407E-3
8.532580332E0,-2.510169148E-2,2.074718475E-3,-8.654594421E-3
8.542620563E0,-1.614093781E-4,-7.254123688E-3,7.899761200E-2
8.552660794E0,4.272681475E-2,-1.311135292E-2,1.039810181E-1
8.562701025E0,5.187267065E-2,-3.167462349E-2,3.537368774E-2
8.572771774E0,5.885529518E-2,-1.498532295E-2,-1.904296875E-2
8.582812006E0,3.811183572E-2,-2.004694939E-2,9.651279449E-2
8.592852238E0,1.923796535E-2,-3.733634949E-3,5.877017975E-2
8.602892469E0,-8.019566536E-3,-1.405501366E-2,-2.459812164E-2
8.612932700E0,-1.643329859E-2,9.478569031E-3,-4.932403564E-3
8.622972932E0,-9.232878685E-3,-1.617908478E-3,-1.597309113E-2
8.633013163E0,1.547673345E-2,-1.687192917E-2,2.826404572E-2
8.643053395E0,2.313444018E-2,7.718324661E-3,5.548572540E-2
8.653093626E0,2.249807119E-2,3.442001343E-2,8.189964294E-2
8.663164375E0,1.933771372E-2,6.228065491E-2,6.417846680E-2
8.673204607E0,3.370857239E-2,7.345652580E-2,4.172420502E-2
8.683244838E0,3.896874189E-2,7.309150696E-2,1.941108704E-2
8.693285069E0,5.572313070E-2,9.202671051E-2,5.218696594E-2
8.703325300E0,4.903957248E-2,7.241463661E-2,3.053092957E-2
8.713365533E0,2.210351825E-2,4.261016846E-2,4.055690765E-2
8.723405764E0,7.986813784E-3,2.125382423E-2,7.009506226E-4
8.733445995E0,-3.215724230E-2,-4.440546036E-2,4.738998413E-2
8.743486226E0,-4.173254967E-2,-3.270220757E-2,4.638481140E-2
8.753556975E0,-4.672342539E-2,-5.689406395E-2,2.143955231E-2
8.763597207E0,-3.051725030E-2,-1.746869087E-2,5.763053894E-3
8.773637438E0,-8.641964197E-2,-5.012273788E-3,-3.633594513E-2
8.783677670E0,-6.246995926E-2,-1.535892487E-2,3.366661072E-2
8.793717901E0,-2.059307694E-2,-5.177021027E-3,6.022739410E-2
8.803758132E0,-2.199962735E-2,-2.246952057E-2,3.378295898E-2
8.813798364E0,-9.341746569E-3,-2.223730087E-2,2.840518951E-2
8.823838595E0,5.479335785E-3,-1.893568039E-2,1.534271240E-2
8.833909344E0,3.191152215E-2,-2.612304688E-2,4.031467438E-2
8.843949575E0,3.194713593E-2,-5.315732956E-2,3.875255585E-2
8.853989808E0,2.245017886E-2,-2.855896950E-2,3.450489044E-2
8.864030039E0,2.948939800E-2,-3.090667725E-2,-1.043319702E-3
8.874070270E0,2.664509416E-2,-4.536700249E-2,-1.509189606E-2
8.884110501E0,1.408332586E-2,-5.250239372E-2,-5.160331726E-3
8.894150732E0,-1.032266021E-2,-4.278945923E-2,1.917552948E-2
8.904190965E0,-3.564894199E-3,-2.824878693E-2,7.704639435E-2
8.914261713E0,1.273688674E-2,-2.588987350E-3,9.398365021E-2
8.924301945E0,2.377703786E-2,-2.115297318E-2,6.749725342E-2
8.934342176E0,1.047363877E-2,2.328372002E-2,-1.525878906E-4
8.944382407E0,3.467690945E-2,2.908349037E-2,-5.594444275E-2
8.954422639E0,-6.797015667E-4,2.341699600E-2,3.447437286E-2
8.964462870E0,1.691445708E-2,2.824330330E-2,6.292057037E-2
8.974503102E0,2.965039015E-2,1.928281784E-2,-4.493904114E-2
8.984543333E0,4.607537389E-2,2.939629555E-2,-9.050559998E-2
8.994614082E0,5.365628004E-2,2.028679848E-2,6.027507782E-2
9.004654314E0,6.897461414E-2,-1.448512077E-2,2.974605560E-1
9.014694545E0,4.133477807E-2,-3.422331810E-2,1.366577148E-1
9.024734776E0,8.938729763E-3,-6.506443024E-3,-1.686410904E-1
9.034775007E0,9.669065475E-3,3.728842735E-2,-7.428169250E-2
9.044815240E0,1.174363494E-2,3.068208694E-2,4.709053040E-2
9.054855471E0,1.975569129E-2,-3.614711761E-2,1.463890076E-3
9.064895702E0,-4.346424341E-2,-3.309011459E-3,-1.179542542E-1
9.074966451E0,5.060380697E-2,1.446294785E-2,-9.809017181E-2
9.085006682E0,2.826747298E-2,9.684085846E-3,3.949451447E-2
9.095046914E0,-9.602546692E-3,1.937532425E-2,1.053333282E-1
9.105087145E0,-1.439279318E-2,1.815438271E-2,9.659004211E-2
9.115127377E0,-2.082562447E-2,3.157639503E-2,4.653358459E-2
9.125167608E0,1.167973876E-2,1.511621475E-2,3.203105927E-2
9.135207840E0,-3.024986386E-2,-1.636743546E-3,3.182125092E-2
9.145278589E0,-6.089708209E-2,-4.157137871E-2,1.033592224E-2
9.155318820E0,-3.996041417E-2,-6.835103035E-2,-3.603935242E-3
9.165359051E0,-1.718223095E-2,-4.222226143E-2,-4.383563995E-2
9.175399282E0,-3.719869256E-2,-4.929709435E-2,3.574180603E-2
9.185439515E0,2.361160517E-2,-1.137566566E-2,-4.532814026E-3
9.195479746E0,2.720651031E-2,-2.172517776E-2,3.651428223E-2
9.205519977E0,-1.193901896E-2,-1.829242706E-2,2.476406097E-2
9.215560208E0,4.136079550E-2,-5.927324295E-3,3.676700592E-2
9.225600440E0,-1.179844141E-3,-3.678083420E-2,5.593109131E-2
9.235671189E0,3.502616286E-2,-2.508020401E-2,2.468109131E-2
9.245711420E0,-1.647090912E-2,-1.859140396E-2,8.195781708E-2
9.255751652E0,3.278017044E-2,-1.204705238E-2,-3.311443329E-2
9.265791883E0,8.309185505E-4,-1.054811478E-2,-4.049110413E-2
9.275832115E0,1.844221354E-2,3.972053528E-4,1.194000244E-2
9.285872346E0,4.464745522E-3,3.984212875E-2,6.670570374E-2
9.295943095E0,3.016036749E-2,3.393077850E-2,9.992980957E-2
9.305983326E0,5.263745785E-3,5.641770363E-2,5.406856537E-2
9.316023557E0,3.246623278E-2,5.304265022E-2,-4.196453094E-2
9.326063790E0,1.561322808E-2,8.742904663E-2,-2.074527740E-2
9.336104021E0,4.520544410E-2,8.679366112E-2,-1.363277435E-2
9.346144252E0,-6.378740072E-3,6.809210777E-2,1.299571991E-2
9.356184483E0,-4.099577665E-3,2.149629593E-2,4.936122894E-2
9.366224715E0,3.412842751E-3,-1.405000687E-3,3.532886505E-2
9.376295464E0,3.629639745E-2,-1.759052277E-2,3.073787689E-2
9.386335695E0,4.585117102E-2,-1.229691505E-2,-1.735687256E-4
9.396375927E0,1.914942265E-2,2.743959427E-3,3.607463837E-2
9.406416158E0,4.409402609E-3,2.524709702E-2,4.605960846E-2
9.416456390E0,1.301565766E-2,3.341364861E-2,4.167175293E-2
9.426496621E0,-2.510577440E-3,4.852533340E-2,2.526092529E-2
9.436536852E0,-1.594126225E-3,3.298425674E-2,-6.217956543E-4
9.446607601E0,1.760512590E-3,-3.603219986E-3,4.065418243E-2
9.456647832E0,-9.246349335E-3,-1.816511154E-3,3.167533875E-2
9.466688065E0,-1.291230321E-2,-2.594685555E-2,-5.929946899E-3
9.476728296E0,-1.823654771E-2,-4.221343994E-2,-1.940917969E-2
9.486768527E0,-9.305834770E-3,-3.698563576E-2,5.408287048E-3
9.496808758E0,1.609414816E-2,-4.084157944E-2,-1.037216187E-2
9.506879507E0,1.282879710E-2,-3.294038773E-2,4.932403564E-3
9.516919739E0,-3.521189094E-2,-5.316901207E-2,1.243591309E-3
9.526959970E0,-4.418492317E-4,-4.738497734E-2,1.660823822E-2
9.537000202E0,-6.607413292E-3,-8.870601654E-3,4.855537415E-2
9.547040433E0,-1.969265938E-2,5.147457123E-4,2.536487579E-2
9.557080664E0,-1.277813315E-2,-1.958203316E-2,2.359294891E-2
9.567151414E0,-1.802992821E-2,-1.841521263E-2,1.936817169E-2
9.577191645E0,-6.642043591E-3,-2.901649475E-2,3.218650818E-3
9.587231876E0,1.187807322E-2,-1.560425758E-2,-5.728721619E-3
9.597272107E0,1.500844955E-3,-1.165723801E-2,2.605247498E-2
9.607342856E0,-4.296660423E-3,-7.246971130E-3,3.159618378E-2
9.617383088E0,2.580377460E-2,2.313232422E-2,2.988433838E-2
9.627423320E0,2.050977945E-2,1.775383949E-2,-5.006790161E-4
9.637463551E0,1.031899452E-2,2.416515350E-2,1.935768127E-2
9.647503782E0,2.274769545E-2,2.400112152E-2,1.296806335E-2
9.657544014E0,-8.023083210E-4,2.166652679E-2,-1.012802124E-2
9.667614763E0,1.597771049E-2,4.776668549E-2,1.219844818E-2
9.677654994E0,-1.704913378E-2,4.088711739E-2,-1.083374023E-2
9.687695225E0,-1.872056723E-2,2.697741985E-2,2.124500275E-2
9.697735457E0,-3.850102425E-3,1.333546638E-2,7.013797760E-2
9.707775689E0,1.338568330E-2,4.355669022E-3,9.506607056E-2
9.717815920E0,2.354663610E-2,9.163737297E-3,7.918453217E-2
9.727886669E0,2.870047092E-2,2.945339680E-2,1.037025452E-2
9.737926900E0,1.226097345E-2,4.481577873E-2,-1.776313782E-2
9.747967131E0,7.881969213E-3,3.256845474E-2,-4.805469513E-2
9.758007363E0,1.078256965E-2,1.911151409E-2,-2.542877197E-2
9.768047595E0,7.424414158E-3,1.159858704E-2,-2.408695221E-2
9.778118343E0,-1.199412346E-2,1.196992397E-2,-9.440612793E-2
9.788158575E0,3.741589189E-2,2.216684818E-2,5.078411102E-2
9.798198806E0,5.748943985E-2,4.708123207E-2,8.589553833E-2
9.808239038E0,1.800149679E-3,-2.427172661E-2,1.760025024E-1
9.818279269E0,2.114784718E-2,-2.500665188E-2,9.646415710E-3
9.828319500E0,1.869428158E-2,-2.463591099E-2,-8.514022827E-2
9.838359732E0,1.688456535E-2,-4.965138435E-2,-4.085445404E-2
9.848430480E0,3.149807453E-3,-4.030179977E-2,-2.512645721E-2
9.858470713E0,-1.258465648E-2,-6.278693676E-2,-3.778743744E-2
9.868510944E0,2.707332373E-3,-5.892193317E-2,-2.889919281E-2
9.878551175E0,4.423858225E-2,-1.089978218E-2,1.233806610E-1
9.888591406E0,-2.571448684E-2,-7.148981094E-3,8.871936798E-2
9.898631638E0,1.920875907E-2,1.311290264E-2,1.684732437E-1
9.908702387E0,4.645884037E-4,1.293957233E-2,1.426038742E-1
9.918742618E0,-1.552432775E-3,5.895078182E-2,8.681297302E-3
9.928782850E0,6.611019373E-3,3.302598000E-2,-6.777000427E-2
9.938823081E0,-1.639115810E-2,4.654657841E-2,1.402473450E-2
9.948863313E0,-2.186328173E-3,1.465713978E-2,1.964759827E-2
9.958903544E0,-3.049257398E-2,2.969574928E-2,-7.957458496E-3
9.968974293E0,-9.630590677E-3,3.062009811E-3,1.262569427E-2
9.979014524E0,-5.428463221E-3,-6.302118301E-3,1.654911041E-2
9.989054755E0,1.499888301E-2,-6.128191948E-3,2.763652802E-2
9.999094988E0,4.049241543E-3,-3.712654114E-3,1.235485077E-2
1.000913522E1,1.667472720E-2,2.004516125E-2,1.857566833E-2
1.001917545E1,8.815765381E-3,1.224279404E-2,-2.552890778E-2
1.002924620E1,-2.207919955E-2,4.409229755E-2,1.399898529E-2
1.003928643E1,8.119493723E-3,4.501068592E-2,3.438186646E-2
1.004932666E1,1.855164766E-3,1.067197323E-2,1.895904541E-2
1.005936689E1,4.385411739E-4,1.429963112E-2,1.066398621E-2
1.006940713E1,2.471189201E-2,5.481243134E-3,9.452819824E-3
1.007944736E1,8.205473423E-3,-5.870223045E-3,8.483409882E-2
1.008951810E1,-1.554790139E-2,-2.969503403E-3,9.555435181E-2
1.009955834E1,-3.408032656E-2,-1.228165627E-2,2.245140076E-2
1.010959857E1,1.930500567E-2,1.391112804E-2,-3.156185150E-2
1.011963880E1,1.389467716E-2,1.902163029E-2,-6.636714935E-2
1.012967903E1,3.662709892E-2,-1.046264172E-2,-2.727508545E-3
1.013971926E1,-4.260152578E-3,-1.941215992E-2,2.526855469E-2
1.014979001E1,-2.118812501E-2,-2.839255333E-2,4.129123688E-2
1.015983024E1,3.016944230E-2,-3.797292709E-2,2.605724335E-2
1.016987047E1,-6.933689117E-3,-4.131269455E-2,4.657936096E-2
1.017991071E1,4.625888169E-2,-2.374005318E-2,2.388286591E-2
1.018995094E1,1.415477693E-2,-9.167671204E-3,5.378055573E-2
1.019999117E1,5.557981133E-2,1.476144791E-2,1.898670197E-2
1.021006192E1,1.162880659E-2,4.341590405E-2,6.082057953E-2
1.022010215E1,-1.102675498E-2,1.563239098E-2,-1.688098907E-2
1.023014238E1,3.252422810E-2,2.862560749E-2,2.033519745E-2
1.024018261E1,1.878903806E-2,3.688991070E-2,1.926326752E-2
1.025022284E1,3.360275924E-2,-2.094268799E-3,2.548027039E-2
1.026026307E1,1.023961604E-2,-1.202440262E-2,5.422592163E-3
1.027033382E1,2.519091964E-2,-1.230835915E-2,6.926536560E-3
1.028037405E1,1.656714082E-2,-1.713335514E-2,-3.487586975E-3
1.029041429E1,-8.694887161E-3,-1.943886280E-2,2.682685852E-2
1.030045452E1,-2.455918491E-2,8.979082108E-3,1.637172699E-2
1.031049475E1,-4.191842675E-2,1.499938965E-2,-2.058982849E-2
1.032056550E1,-7.540181279E-3,-5.563497543E-3,3.097629547E-2
1.033060573E1,-1.200893521E-2,5.434632301E-3,4.674720764E-2
1.034064596E1,-2.196417749E-2,-1.907086372E-2,7.220172882E-2
1.035068619E1,-1.185531914E-2,-1.730477810E-2,-3.640556335E-2
1.036072642E1,-1.069073379E-2,1.912570000E-2,-8.728981018E-3
1.037076665E1,-1.636621356E-2,-1.602017879E-2,3.091907501E-2
1.038083740E1,3.862142563E-3,-3.720521927E-3,5.128669739E-2
1.039087764E1,-1.115262508E-3,8.520126343E-3,2.618598938E-2
1.040091787E1,-2.860301733E-2,1.809358597E-3,2.030563354E-2
1.041095810E1,-2.429766953E-2,1.449823380E-2,9.694099426E-3
1.042099833E1,-1.778511703E-2,1.525402069E-3,1.116180420E-2
1.043106908E1,-1.158595085E-2,2.235901356E-2,1.027774811E-2
1.044110931E1,-9.886920452E-4,-1.628255844E-2,1.423645020E-2
1.045114954E1,1.370196044E-2,9.960174561E-3,2.540206909E-2
1.046118977E1,1.647302508E-2,-1.823759079E-2,2.470016479E-2
1.047123000E1,5.145549774E-3,-3.159761429E-3,-2.145671844E-2
1.048127024E1,2.932016551E-2,1.453387737E-2,1.621150970E-2
1.049131047E1,2.212151885E-2,3.702604771E-2,3.951263428E-2
1.050138122E1,1.413995028E-2,2.246022224E-3,-7.119846344E-2
1.051142145E1,-2.591520548E-3,1.976966858E-2,2.404212952E-3
1.052146168E1,1.490804553E-2,-2.668237686E-2,2.580070496E-2
1.053150191E1,-8.704990149E-3,-1.034855843E-3,2.050209045E-2
1.054154214E1,1.401641965E-2,1.701188087E-2,9.177112579E-2
1.055158237E1,4.340718687E-2,-8.094191551E-3,1.199283600E-1
1.056165312E1,1.815322042E-2,-7.684588432E-3,8.332729340E-2
1.057169335E1,2.625772357E-2,-5.595684052E-3,-2.999782562E-2
1.058173358E1,-1.798206568E-2,5.081808567E-2,-8.835792542E-2
1.059177382E1,-3.649413586E-3,3.660476208E-2,-1.722812653E-2
1.060181405E1,-3.079622984E-3,3.316307068E-2,4.930591583E-2
1.061185428E1,-2.728104591E-4,9.399056435E-3,1.307010651E-2
1.062189451E1,-3.169164062E-3,-1.913738251E-2,-1.599788666E-2
1.063196526E1,5.598247051E-3,-3.043532372E-2,3.879737854E-2
1.064200549E1,1.744261384E-2,-3.925740719E-2,9.361839294E-2
1.065204572E1,2.490200102E-2,-3.680384159E-2,1.196136475E-1
1.066208595E1,-8.617445827E-3,-4.707169533E-2,3.775310516E-2
1.067212619E1,-1.489947736E-2,-4.584181309E-2,-8.250999451E-2
1.068216642E1,-3.153426945E-2,-1.614892483E-2,-9.508419037E-2
1.069220665E1,-1.669664681E-2,-2.588737011E-2,-5.479431152E-2
1.070227740E1,-8.199006319E-3,-1.780366898E-2,1.679325104E-2
1.071231763E1,1.443596184E-2,2.085185051E-2,7.872009277E-2
1.072235786E1,2.227993309E-2,6.027579308E-3,9.024333954E-2
1.073239809E1,-3.597244620E-3,9.158968925E-3,1.183490753E-1
1.074243832E1,6.196379662E-3,2.301430702E-2,1.079645157E-1
1.075250907E1,1.150551438E-2,2.434432507E-2,8.314228058E-2
1.076254930E1,1.737858355E-2,3.027939796E-2,2.000045776E-2
1.077258954E1,1.420678198E-2,8.567333221E-3,-4.536819458E-2
1.078262977E1,-1.000496745E-2,1.896464825E-2,-1.960372925E-2
1.079267000E1,-7.549867034E-3,5.472600460E-2,-1.996707916E-2
1.080271023E1,-1.922538877E-2,3.898930550E-2,-3.398895264E-3
1.081278098E1,-2.609984577E-2,1.675236225E-2,2.523803711E-2
1.082282121E1,-5.664701760E-2,2.760958672E-2,1.112813950E-1
1.083286144E1,5.721271038E-3,5.049467087E-3,1.005172729E-3
1.084290167E1,-2.405352890E-2,-4.033446312E-3,5.545616150E-3
1.085294190E1,-3.051213920E-2,-1.097440720E-2,3.877067566E-2
1.086298213E1,-2.140015364E-3,-5.941510201E-3,1.525878906E-4
1.087305288E1,-3.962653875E-2,-2.976512909E-2,1.420974731E-2
1.088309312E1,3.588572145E-3,-1.089215279E-3,2.344226837E-2
1.089313335E1,3.756269813E-3,-2.738177776E-2,2.550888062E-2
1.090317358E1,3.681465983E-3,-1.536190510E-2,2.278232574E-2
1.091321381E1,2.926865220E-2,3.641247749E-3,6.311321259E-2
1.092325404E1,9.461894631E-3,2.023756504E-2,8.668613434E-2
1.093332479E1,-8.489251137E-3,1.230001450E-3,8.874511719E-2
1.094336502E1,-2.433094382E-2,5.954146385E-3,-2.893829346E-2
1.095340525E1,-2.310407162E-2,-3.180265427E-3,-9.626770020E-2
1.096344548E1,1.933434606E-2,-2.986288071E-2,-5.562591553E-2
1.097348572E1,4.988595843E-3,-3.198051453E-2,5.694103241E-2
1.098355646E1,1.439867914E-2,-2.945733070E-2,7.371520996E-2
1.099359670E1,2.256661654E-3,-1.845932007E-2,3.526973724E-2
1.100363693E1,5.145104229E-2,-1.549232006E-2,3.978633881E-2
1.101367716E1,4.366248101E-2,-1.067638397E-3,1.790523529E-2
1.102371739E1,1.744490862E-2,2.506399155E-2,2.472877502E-2
1.103378814E1,1.945774257E-2,4.166603088E-2,4.352283478E-2
1.104382837E1,-1.438164711E-2,3.495419025E-2,3.606891632E-2
1.105386860E1,6.350338459E-3,2.871096134E-2,3.346061707E-2
1.106390883E1,-1.321540773E-2,2.991318703E-2,-1.698780060E-2
1.107394906E1,-6.115823984E-3,4.319787025E-2,2.015113831E-3
1.108401981E1,7.939532399E-3,3.057932854E-2,4.980468750E-2
1.109406004E1,1.227298379E-2,8.685588837E-3,6.411552429E-2
1.110410028E1,-5.601793528E-4,-2.759623528E-2,2.095603943E-2
1.111414051E1,-2.233836055E-2,-3.787946701E-2,-3.087043762E-3
1.112418074E1,-8.210271597E-3,-2.006161213E-2,1.587867737E-2
1.113422097E1,-1.549759507E-2,-4.656195641E-3,1.090240479E-2
1.114429172E1,-6.308615208E-3,-2.048730850E-2,2.266597748E-2
1.115433195E1,-1.152206957E-2,-1.503539085E-2,1.763439178E-2
1.116437218E1,-1.906166971E-2,-1.425552368E-2,-1.850509644E-2
1.117441241E1,9.328991175E-3,6.502866745E-4,2.193737030E-2
1.118445264E1,-1.722016931E-2,1.091253757E-2,-2.618312836E-2
1.119449288E1,2.533155680E-2,-1.423883438E-2,1.434516907E-2
1.120456362E1,-3.202944994E-2,-9.307861328E-4,4.053783417E-2
1.121460386E1,1.350595057E-2,-1.139760017E-2,-7.466316223E-3
1.122464409E1,-2.448880672E-2,1.122963428E-2,7.376289368E-2
1.123468432E1,-2.439884841E-2,-1.625072956E-2,-2.215862274E-2
1.124472455E1,-1.051181555E-2,-1.289689541E-2,8.058929443E-2
1.125476478E1,-2.255508304E-2,-2.148640156E-2,-3.399848938E-3
1.126480501E1,-1.306191087E-3,-1.591801643E-2,6.341457367E-2
1.127487576E1,-8.600249887E-3,1.345658302E-2,2.247524261E-2
1.128491599E1,-4.077166319E-3,1.165020466E-2,2.701568604E-2
1.129495622E1,2.652464807E-2,3.373539448E-2,-1.633834839E-2
1.130499646E1,2.378480136E-2,1.083290577E-2,1.699256897E-2
1.131503669E1,3.516874462E-2,2.164721489E-2,4.856109619E-3
1.132507692E1,2.042387426E-2,-3.120064735E-3,1.192283630E-2
1.133514767E1,1.294386387E-2,2.229416370E-2,2.376461029E-2
1.134518790E1,-1.340743899E-2,-9.348154068E-3,3.327178955E-2
1.135522813E1,2.232742310E-2,1.369810104E-2,5.230236053E-2
1.136526836E1,3.048986197E-3,1.000690460E-2,6.888675690E-2
1.137530860E1,-4.660502076E-3,-1.093041897E-2,5.427360535E-2
1.138534883E1,-2.418664098E-2,1.078724861E-2,-5.884170532E-3
1.139538906E1,-1.284706593E-2,4.099369049E-3,-3.248310089E-2
1.140545981E1,5.895957351E-3,7.511615753E-3,-1.548767090E-3
1.141550004E1,1.535904408E-2,-5.043268204E-3,1.273727417E-2
1.142554027E1,1.296022534E-2,-1.245212555E-2,-1.602363586E-2
1.143558050E1,-1.073983312E-2,-3.109157085E-2,-4.468154907E-2
1.144562073E1,1.586574316E-2,-1.539051533E-2,1.296138763E-2
1.145566096E1,2.139200270E-2,1.458537579E-2,1.208782196E-1
1.146573171E1,2.930407971E-2,3.487110138E-3,1.329765320E-1
1.147577194E1,3.631171584E-2,8.030653000E-3,2.520179749E-2
1.148581218E1,-3.101803362E-2,-2.819371223E-2,-8.018875122E-2
1.149585241E1,-2.459667623E-2,-4.437506199E-2,-1.040649414E-1
1.150589264E1,-3.200703859E-2,-2.604806423E-2,-5.597400665E-2
1.151596339E1,-5.773738027E-3,-1.193952560E-2,2.810668945E-2
1.152600362E1,4.398172349E-2,-2.353465557E-2,3.565311432E-2
1.153604385E1,2.445665002E-2,-1.662099361E-2,7.663536072E-2
1.154608408E1,-9.297817945E-3,8.806109428E-3,9.598541260E-2
1.155612431E1,-1.877938211E-2,5.196285248E-2,9.599494934E-2
1.156616454E1,-8.758351207E-3,5.905282497E-2,2.655696869E-2
1.157623529E1,2.532379329E-2,3.843045235E-2,-1.640605927E-2
1.158627552E1,4.794508219E-3,3.127586842E-2,-5.197620392E-2
1.159631576E1,-8.620798588E-3,-1.245617867E-2,1.084804535E-2
1.160635599E1,-6.763610244E-2,-7.852125168E-2,1.918888092E-2
1.161639622E1,2.251908183E-2,-5.167961121E-3,9.231567383E-4
1.162646697E1,5.441039801E-3,1.771306992E-2,5.207443237E-2
1.163650720E1,-4.306256771E-2,-1.695823669E-2,1.941490173E-2
1.164654743E1,-3.628183901E-2,-3.514361382E-2,1.091957092E-3
1.165658766E1,3.628566861E-3,-2.254104614E-2,1.863098145E-2
1.166662789E1,2.641484141E-3,1.635479927E-2,3.377056122E-2
1.167666812E1,-3.394258022E-2,-1.396644115E-2,1.303577423E-2
1.168670836E1,-2.976112068E-2,-2.715563774E-2,-1.242923737E-2
1.169677911E1,-1.685708761E-3,-2.110123634E-2,5.215644836E-3
1.170681934E1,2.732977271E-3,1.114249229E-2,3.482151031E-2
1.171685957E1,1.847961545E-2,-4.673600197E-3,2.129840851E-2
1.172689980E1,2.878779173E-2,7.547140121E-4,5.081939697E-2
1.173694003E1,3.142726421E-2,3.751516342E-3,6.836032867E-2
1.174701078E1,2.554684877E-3,-1.233935356E-2,6.896972656E-3
1.175705101E1,-9.574547410E-3,-2.565634251E-2,-4.732704163E-2
1.176709124E1,1.541712880E-2,-2.460610867E-2,-7.479476929E-2
1.177713147E1,-4.110306501E-3,-2.451753616E-2,-5.893135071E-2
1.178717171E1,3.954052925E-3,-1.202833652E-2,1.444816589E-2
1.179721194E1,3.647835553E-2,2.990961075E-4,2.792358398E-2
1.180728269E1,3.710459173E-2,-2.710342407E-3,-6.633758545E-3
1.181732292E1,2.300439775E-2,-1.333057880E-2,2.099418640E-2
1.182736315E1,4.703637958E-2,1.436114311E-2,1.031970978E-2
1.183740338E1,5.684711039E-2,2.501797676E-2,-1.475048065E-2
1.184744361E1,5.054682493E-2,4.461693764E-2,1.756000519E-2
1.185748384E1,4.253365099E-2,3.126168251E-2,6.913280487E-2
1.186755459E1,4.462301731E-3,2.330291271E-2,5.139541626E-2
1.187759482E1,-1.464250684E-2,1.506268978E-2,1.446628571E-2
1.188763506E1,-1.962703466E-2,2.540993690E-2,-1.776123047E-2
1.189767529E1,-1.113511622E-2,9.770393372E-3,3.145885468E-2
1.190771552E1,6.684809923E-3,2.303647995E-2,4.958534241E-2
1.191775575E1,-1.336449385E-2,-2.309978008E-2,2.470493317E-2
1.192782650E1,-3.728927672E-2,-1.921057701E-2,4.599571228E-3
1.193786673E1,-2.324810624E-2,-3.717720509E-2,2.514648438E-2
1.194790696E1,1.204834878E-2,-3.394842148E-2,4.939079285E-3
1.195794719E1,-2.931322157E-2,2.261042595E-3,-1.535320282E-2
1.196798742E1,-3.773912787E-3,-2.149462700E-3,2.680778503E-3
1.197802766E1,-2.536119521E-2,3.298878670E-3,-4.864883423E-2
1.198806789E1,-1.298367977E-2,-1.005947590E-2,3.046035767E-3
1.199813864E1,-8.076697588E-3,-1.782274246E-2,1.896476746E-2
1.200817887E1,-1.040878892E-2,-8.158087730E-3,3.979206085E-2
1.201821910E1,-1.180042326E-2,-4.149627686E-2,2.475452423E-2
1.202825933E1,-1.758344471E-2,-2.510309219E-2,-4.721641541E-3
1.203829956E1,-4.304449260E-2,-4.010403156E-2,-1.030158997E-2
1.204833979E1,-1.028728485E-2,-2.699470520E-2,2.228641510E-2
1.205838002E1,3.581434488E-3,-2.094817162E-2,7.027626038E-3
1.206845077E1,1.086895168E-2,-1.239287853E-2,-5.794525146E-3
1.207849100E1,4.070177674E-3,-3.696203232E-2,-8.956909180E-3
1.208853124E1,2.734348178E-3,-3.474497795E-2,-4.831314087E-3
1.209857147E1,3.217920661E-2,8.163213730E-3,5.669593811E-2
1.210861170E1,2.457110584E-2,-1.302480698E-3,5.361366272E-2
1.211865193E1,1.587225497E-2,-1.653432846E-2,-1.903343201E-2
1.212869216E1,-5.730912089E-3,-1.801156998E-2,-4.146671295E-2
1.213876291E1,-1.067295671E-2,-8.562803268E-4,7.838249207E-3
1.214880314E1,-1.702636480E-3,-1.966452599E-2,5.234050751E-2
1.215884337E1,2.103298903E-3,-3.613960743E-2,5.846977234E-3
1.216888361E1,3.438216448E-2,-7.441043854E-4,9.567832947E-2
1.217892384E1,2.137435973E-2,9.742975235E-3,-2.534770966E-2
1.218896407E1,2.733840048E-2,2.714025974E-2,-4.826354980E-2
1.219903482E1,-4.905521870E-3,2.579569817E-2,-6.152057648E-2
1.220907505E1,6.241992116E-2,1.352500916E-2,-5.305767059E-2
1.221911528E1,1.172208786E-2,5.057692528E-3,2.035999298E-2
1.222915551E1,-1.335048676E-2,-3.000497818E-2,-1.116704941E-1
1.223919574E1,-1.213911176E-2,-2.883744240E-2,-6.606101990E-3
1.224923597E1,1.223072410E-2,-6.208872795E-2,4.606437683E-2
1.225927620E1,-8.139103651E-3,-4.090523720E-2,9.386253357E-2
1.226934695E1,-1.031637192E-2,-8.066999912E-2,-1.418495178E-2
1.227938719E1,9.381592274E-3,-7.255530357E-2,-8.203792572E-2
1.228942742E1,8.215874434E-3,-8.943092823E-2,2.224445343E-2
1.229946765E1,-1.754558086E-2,-1.013206244E-1,4.754543304E-2
1.230950788E1,-2.141764760E-2,-9.653067589E-2,-8.556365967E-3
1.231954811E1,1.597315073E-2,-5.457508564E-2,-6.007289886E-2
1.232958834E1,1.175084710E-2,2.062976360E-2,-1.103973389E-2
1.233965909E1,3.725664318E-2,1.751554012E-2,7.167911530E-2
1.234969932E1,2.689385414E-2,3.773188591E-2,1.016101837E-1
1.235973955E1,2.597093582E-3,5.710303783E-2,8.350658417E-2
1.236977979E1,2.344280481E-3,7.784533501E-2,4.605197906E-2
1.237982002E1,-7.063984871E-3,1.182342768E-1,1.110363007E-2
1.238986025E1,4.659585655E-2,1.051391363E-1,1.186275482E-2
1.239990048E1,1.742130518E-2,8.941340446E-2,2.745056152E-2
1.240994071E1,-2.039924264E-2,5.013942719E-2,2.926445007E-2
1.242001146E1,-1.064914465E-2,3.083276749E-2,4.081821442E-2
1.243005169E1,-4.620108008E-2,-3.336536884E-2,2.856922150E-2
1.244009192E1,-1.558154821E-3,-3.380656242E-2,3.526592255E-2
1.245013215E1,-2.786040306E-3,-3.231549263E-2,1.553058624E-2
1.246017239E1,-2.516138554E-2,-2.426028252E-2,1.005363464E-2
1.247021262E1,-3.263604641E-2,2.619147301E-3,2.129173279E-2
1.248025285E1,-1.139044762E-2,7.622241974E-4,2.295780182E-2
1.249032360E1,-2.567860484E-2,-2.278375626E-2,4.855537415E-2
1.250036383E1,-2.997469902E-2,-2.011108398E-2,4.715919495E-3
1.251040406E1,1.087188721E-2,-2.035379410E-2,-3.205394745E-2
1.252044429E1,2.498060465E-2,-6.215095520E-3,-8.971214294E-3
1.253048452E1,7.239580154E-4,-1.569366455E-2,5.967235565E-2
1.254052476E1,-8.345872164E-3,-2.489304543E-2,7.086944580E-2
1.255056499E1,-8.877664804E-3,-3.203916550E-2,1.732349396E-2
1.256063574E1,4.776299000E-3,-3.215885162E-2,-5.130767822E-3
1.257067597E1,7.184326649E-3,-4.833459854E-2,-4.655933380E-2
1.258071620E1,-1.349151134E-2,-6.771278381E-2,-8.521556854E-2
1.259075643E1,-1.964694262E-2,-4.150414467E-2,-3.764533997E-2
1.260079666E1,1.196974516E-2,-6.674480438E-2,1.018333435E-2
1.261083689E1,-3.625452518E-3,-3.734397888E-2,2.204036713E-2
1.262087712E1,3.809618950E-2,-6.732416153E-2,6.273937225E-2
1.263091736E1,1.360562444E-2,-7.051181793E-2,-2.570629120E-2
1.264098810E1,6.511986256E-3,-8.950710297E-3,9.870529175E-3
1.265102834E1,-5.525946617E-3,4.005241394E-2,-4.958152771E-3
1.266106857E1,1.446601748E-2,3.568840027E-2,-7.495880127E-4
1.267110880E1,-1.193249226E-2,2.323985100E-2,4.401493073E-2
1.268114903E1,1.913061738E-2,7.673263550E-3,1.431941986E-2
1.269118926E1,3.211712837E-2,2.617120743E-3,2.008342743E-2
1.270122949E1,1.440986991E-2,-2.479958534E-2,-1.262855530E-2
1.271130024E1,-2.460119128E-2,-4.494094849E-2,4.335975647E-2
1.272134047E1,-2.810290456E-2,-4.807353020E-2,-1.544666290E-2
1.273138070E1,-1.917788386E-2,-5.591630936E-2,-4.069614410E-2
1.274142094E1,-4.544019699E-3,-8.011794090E-2,-1.323127747E-2
1.275146117E1,-3.076046705E-3,-4.928779602E-2,2.136898041E-2
1.276150140E1,-2.662822604E-2,-4.173612595E-2,1.546955109E-2
1.277154163E1,-2.100703120E-2,-2.926445007E-2,1.680374146E-2
1.278158186E1,-1.347267628E-2,-2.089667320E-2,-8.716583252E-4
1.279165261E1,1.267921925E-2,-3.077745438E-2,-3.986358643E-3
1.280169284E1,-1.171171665E-3,-3.974747658E-2,4.102516174E-2
1.281173307E1,1.898843050E-2,-2.395844460E-2,4.555130005E-2
1.282177330E1,1.735851169E-2,-2.939677238E-2,1.424121857E-2
1.283181354E1,5.112290382E-4,2.478241920E-2,-9.963035583E-3
1.284185377E1,-5.310773849E-5,1.232337952E-2,4.492378235E-2
1.285189400E1,-1.241588593E-2,2.166175842E-2,7.355022430E-2
1.286196475E1,-7.869690657E-3,2.632737160E-2,5.194282532E-2
1.287200498E1,3.802180290E-3,5.398988724E-2,7.081890106E-2
1.288204521E1,2.200078964E-2,5.984258652E-2,4.651737213E-2
1.289208544E1,4.198700190E-3,6.557321548E-2,3.039360046E-3
1.290212567E1,-2.059513330E-2,5.026841164E-2,-9.176254272E-3
1.291216590E1,-1.614663005E-2,4.692387581E-2,8.397960663E-2
1.292220614E1,-3.317916393E-2,2.708029747E-2,8.623027802E-2
1.293227689E1,-3.590369225E-2,1.414608955E-2,-4.325962067E-2
1.294231712E1,-4.609256983E-3,1.517939568E-2,-1.273279190E-1
1.295235735E1,1.304873824E-2,-2.328872681E-3,-2.911567688E-3
1.296239758E1,3.287497163E-2,-4.507303238E-2,1.840267181E-1
1.297243781E1,3.719931841E-2,-4.214549065E-2,5.494213104E-2
1.298247804E1,2.610024810E-2,-5.719399452E-2,-1.008167267E-1
1.299251827E1,-1.145529747E-2,-4.109144211E-2,-2.779960632E-3
1.300258902E1,-1.319447160E-2,-5.018472672E-2,3.569507599E-2
1.301262925E1,-1.525270939E-2,-7.459568977E-2,-3.799343109E-2
1.302266949E1,-2.214571834E-2,-6.077265739E-2,-8.056259155E-2
1.303270972E1,-1.221963763E-2,-4.289722443E-2,-3.950786591E-2
1.304274995E1,5.683749914E-3,-2.525901794E-2,2.787017822E-2
1.305279018E1,1.024541259E-2,-7.708311081E-3,3.542518616E-2
1.306283041E1,3.589907289E-2,-2.686738968E-3,2.606964111E-2
1.307290116E1,2.734234929E-2,-2.889227867E-2,5.018711090E-2
1.308294139E1,1.038184762E-2,-4.063701630E-2,5.992412567E-2
1.309298162E1,-6.585985422E-3,-5.430483818E-2,7.458305359E-2
1.310302186E1,-1.058650017E-2,-5.084872246E-2,1.038455963E-2
1.311306209E1,-2.051767707E-2,-3.084301949E-2,3.657341003E-3
1.312310232E1,-8.527487516E-3,-3.926396370E-2,1.858806610E-2
1.313314255E1,-9.087711573E-3,-4.980015755E-2,-4.725456238E-3
1.314321330E1,-8.272737265E-3,-1.856493950E-2,2.903556824E-2
1.315325353E1,-1.002418995E-2,-4.694461823E-4,2.178287506E-2
1.316329376E1,-2.531635761E-2,1.719474792E-2,7.845211029E-2
1.317333399E1,9.582519531E-3,3.353118896E-3,-8.524703979E-2
1.318337422E1,-1.682370901E-3,1.038551331E-2,8.842563629E-2
1.319341446E1,5.632400513E-3,8.376598358E-3,-1.071834564E-2
1.320345469E1,1.768273115E-2,-7.589817047E-3,6.742286682E-2
1.321349492E1,-3.198942542E-2,-1.974105835E-3,4.264736176E-2
1.322356567E1,3.996798396E-2,-2.981925011E-2,-8.464813232E-3
1.323360590E1,-2.813246846E-2,3.570127487E-2,1.145963669E-1
1.324364613E1,1.033505797E-2,1.030087471E-2,7.002830505E-2
1.325368636E1,-2.119714022E-2,1.274132729E-2,8.983516693E-2
1.326372659E1,1.096558571E-2,2.225708961E-2,-9.872341156E-2
1.327376682E1,-4.265278578E-3,6.340742111E-3,-5.237865448E-2
1.328380706E1,1.740363240E-2,8.246421814E-3,-3.921413422E-2
1.329387780E1,1.102453470E-2,-3.661632538E-3,-6.711959839E-3
1.330391804E1,-2.758175135E-3,-1.530718803E-2,2.106857300E-2
1.331395827E1,-1.453441381E-2,-3.160953522E-3,5.696296692E-3
1.332399850E1,-1.172068715E-2,-2.015066147E-2,9.379386902E-3
1.333403873E1,-3.865599632E-3,-3.699898720E-2,-1.252174377E-3
1.334407896E1,-8.185058832E-3,-2.782034874E-2,3.351402283E-2
1.335414971E1,2.538913488E-2,-3.050160408E-2,5.393028259E-2
1.336418994E1,1.858115196E-3,-2.131223679E-2,2.884674072E-2
1.337423017E1,-1.883885264E-2,-2.885365486E-2,6.188392639E-3
1.338427040E1,-3.210517764E-2,-5.570411682E-3,-2.851390839E-2
1.339431064E1,-7.697045803E-3,-8.744478226E-3,-3.694057465E-2
1.340435087E1,8.947879076E-3,-2.596831322E-2,-2.375316620E-2
1.341442162E1,2.048936486E-2,-3.325986862E-2,3.501319885E-2
1.342446185E1,-4.119575024E-3,-4.736638069E-2,5.796146393E-2
1.343450208E1,2.823814750E-2,-4.695773125E-2,1.389694214E-2
1.344454231E1,4.239827394E-3,-4.212093353E-2,-3.261280060E-2
1.345458254E1,2.334454656E-2,-3.730082512E-2,-4.903793335E-3
1.346465329E1,3.693988919E-2,-2.769160271E-2,4.911231995E-2
1.347469352E1,6.126055121E-2,-4.086756706E-2,-1.937866211E-3
1.348473375E1,5.492970347E-2,-1.657652855E-2,1.622867584E-2
1.349477398E1,4.529395700E-2,-3.509640694E-2,1.768016815E-2
1.350481422E1,1.928782463E-2,-4.215264320E-2,7.036209106E-3
1.351485445E1,-1.629412174E-3,-7.277584076E-2,-3.483772278E-3
1.352489468E1,-2.697217464E-2,-7.274460793E-2,7.427215576E-3
1.353496543E1,-4.992207885E-2,-1.887798309E-2,5.150222778E-2
1.354500566E1,-2.722075582E-2,1.835799217E-2,1.182651520E-2
1.355504589E1,-1.560103893E-2,4.954862595E-2,8.195877075E-2
1.356508612E1,2.170255780E-2,7.521438599E-2,4.171562195E-2
1.357512635E1,5.717316270E-2,7.189297676E-2,1.329040527E-2
1.358516659E1,5.900251865E-2,4.814314842E-2,-1.241683960E-2
1.359520682E1,2.826908231E-2,3.926634789E-2,9.948730469E-3
1.360527757E1,-5.084598064E-2,4.488015175E-2,6.094932556E-3
1.361531780E1,-2.091705799E-3,1.554608345E-2,-2.147483826E-2
1.362535803E1,-9.502857924E-3,-8.982896805E-3,-1.041507721E-1
1.363539826E1,7.679462433E-3,1.636791229E-2,-9.832859039E-2
1.364543849E1,2.381739020E-2,-1.076221466E-3,9.448814392E-2
1.365547872E1,2.981075644E-2,-4.663896561E-2,1.606683731E-1
1.366551896E1,8.530259132E-3,-5.097031593E-2,-9.465980530E-2
1.367558970E1,-4.229336977E-3,-5.369639397E-2,-5.817127228E-2
1.368562994E1,-2.969959378E-2,-3.113698959E-2,6.497573853E-2
1.369567017E1,-3.637567163E-2,-5.004954338E-2,6.731033325E-3
1.370571040E1,-5.174633861E-2,-3.743124008E-2,-1.040258408E-1
1.371575063E1,8.069455624E-3,-3.908443451E-2,-6.397342682E-2
1.372579086E1,-7.153064013E-3,2.302169800E-3,1.194190979E-2
1.373583109E1,-1.054534316E-2,1.664662361E-2,6.609725952E-2
1.374587132E1,-1.937836409E-3,1.737403870E-2,8.624458313E-2
1.375594207E1,1.354467869E-2,-2.136588097E-2,8.209133148E-2
1.376598230E1,3.639936447E-3,-6.630420685E-3,1.286125183E-2
1.377602254E1,-1.411986351E-2,2.973794937E-3,1.064109802E-2
1.378606277E1,-1.031565666E-2,-1.994419098E-2,3.984642029E-2
1.379610300E1,-4.665255547E-4,-4.166626930E-2,3.823757172E-2
1.380614323E1,2.499231696E-2,-2.944850922E-2,-2.075862885E-2
1.381618346E1,1.912999153E-2,-1.827478409E-2,-3.219032288E-2
1.382625421E1,-3.301441669E-3,1.516580582E-3,-3.911399841E-2
1.383629444E1,-1.292008162E-2,4.188299179E-3,2.561187744E-2
1.384633467E1,-1.945537329E-2,-4.949331284E-3,7.594203949E-2
1.385637490E1,-1.061886549E-2,-2.100610733E-2,3.302478790E-2
1.386641514E1,-3.751757741E-2,-1.546382904E-3,-1.947307587E-2
1.387645537E1,-1.158872247E-2,3.291606903E-3,-2.145767212E-4
1.388649560E1,-6.312757730E-3,-6.616830826E-3,4.280281067E-2
1.389656635E1,-5.558282137E-3,4.297256470E-3,2.565288544E-2
1.390660658E1,2.655410767E-2,5.373954773E-3,-1.071929932E-2
1.391664681E1,6.104183197E-2,2.080202103E-3,-6.612014771E-2
1.392668704E1,1.544672251E-2,1.999592781E-2,7.954883575E-2
1.393672727E1,2.171069384E-2,1.905512810E-2,9.598541260E-2
1.394676750E1,1.066502929E-2,1.525735855E-2,-5.533599854E-2
1.395683825E1,-2.924233675E-2,2.747416496E-2,-7.520389557E-2
1.396687848E1,-2.097776532E-2,-7.418155670E-3,-2.060604095E-2
1.397691872E1,-1.574441791E-2,-3.196954727E-2,5.823898315E-2
1.398695895E1,-2.460539341E-3,-1.127505302E-2,3.649520874E-2
1.399699918E1,-8.510559797E-3,6.259202957E-3,2.543449402E-3
1.400703941E1,2.029320598E-2,-2.998113632E-3,2.347469330E-2
1.401711016E1,2.696165442E-2,2.056288719E-2,4.895973206E-2
1.402715039E1,1.729035378E-2,2.744531631E-2,4.575729370E-2
1.403719062E1,1.783162355E-2,1.078534126E-2,2.002716064E-3
1.404723085E1,1.556950808E-2,3.636598587E-3,3.701210022E-3
1.405727108E1,-7.963776588E-4,-8.298635483E-3,7.805824280E-3
1.406731132E1,-7.098585367E-3,1.331901550E-2,-9.604454041E-3
1.407735155E1,-3.939300776E-3,-3.217935562E-3,-1.979160309E-2
1.408742230E1,1.242846251E-3,-4.325699806E-2,1.323127747E-2
1.409746253E1,3.671377897E-3,-6.334543228E-2,-1.409530640E-3
1.410750276E1,-8.171111345E-3,-6.209063530E-2,3.047943115E-3
1.411754299E1,3.426015377E-3,-4.465150833E-2,3.364753723E-2
1.412758322E1,-2.309083939E-3,-1.073622704E-2,1.146602631E-2
1.413762345E1,1.089218259E-2,8.431196213E-3,-8.443832397E-3
1.414766369E1,-1.902759075E-3,2.265834808E-2,-2.359294891E-2
1.415770392E1,-1.430806518E-2,1.985597610E-2,1.024541855E-1
1.416777467E1,1.155710220E-2,1.319193840E-2,1.568889618E-2
1.417781490E1,-3.627595305E-2,1.065802574E-2,1.250782013E-1
1.418785513E1,-6.136596203E-4,-2.493405342E-2,-2.877140045E-2
1.419789536E1,-2.003443241E-2,-3.503727913E-2,6.612586975E-2
1.420793559E1,3.362387419E-3,-1.186943054E-2,-8.326911926E-2
1.421797582E1,-2.102375031E-3,-3.436636925E-2,2.824783325E-2
1.422801606E1,6.785809994E-3,-6.784439087E-3,-3.985786438E-2
1.423808680E1,-8.771717548E-4,-3.206801414E-2,1.409626007E-2
1.424812704E1,-2.968987823E-2,1.569151878E-2,5.814838409E-2
1.425816727E1,1.942357421E-2,9.282588959E-3,1.879119873E-1
1.426820750E1,8.502840996E-3,5.220651627E-3,5.190181732E-2
1.427824773E1,2.798137069E-2,1.453328133E-2,6.558418274E-3
1.428828796E1,-7.532089949E-3,2.813935280E-2,3.769779205E-2
1.429835871E1,-2.218067646E-3,2.255225182E-2,3.531932831E-2
1.430839894E1,-4.427659512E-2,1.658987999E-2,-7.248306274E-2
1.431843917E1,-1.159286499E-2,2.726650238E-2,-1.539516449E-1
1.432847940E1,6.168189645E-2,3.044795990E-2,7.095336914E-2
1.433851964E1,6.295618415E-2,-1.234197617E-2,3.180513382E-1
1.434855987E1,4.362002015E-2,1.810121536E-2,1.051263809E-1
1.435863062E1,5.080947280E-2,3.889226913E-2,-2.330808640E-1
1.436867085E1,4.230421782E-2,4.509115219E-2,-1.164951324E-1
1.437871108E1,1.807421446E-3,-1.055002213E-3,5.120658875E-2
1.438875131E1,-3.295469284E-2,-4.631924629E-2,3.082656860E-2
1.439879154E1,-3.746894002E-2,-4.856848717E-2,-1.117124557E-1
1.440883177E1,-1.513323188E-2,-1.485967636E-2,-6.278133392E-2
1.441887200E1,1.369935274E-2,-7.780551910E-3,2.801895142E-3
1.442891224E1,2.883622050E-2,5.674123764E-3,9.931850433E-2
1.443898298E1,-3.215789795E-3,-1.522588730E-2,8.550262451E-2
1.444902322E1,2.773582935E-3,2.720355988E-3,8.314132690E-2
1.445906345E1,5.472570658E-3,5.283355713E-4,4.696464539E-2
1.446910368E1,8.263468742E-3,-1.399493217E-2,2.506732941E-2
1.447914391E1,-1.174366474E-2,-4.688715935E-2,1.048088074E-3
1.448918414E1,-4.248860478E-2,-3.591656685E-2,-1.791667938E-2
1.449922437E1,-4.448553920E-2,-3.406453133E-2,3.952980042E-3
1.450926460E1,-2.370348573E-2,-2.233481407E-2,-4.835700989E-2
1.451933535E1,-6.118118763E-3,-4.862833023E-2,9.514808655E-3
1.452937558E1,3.224527836E-2,-4.330420494E-2,-1.936912537E-3
1.453941582E1,-4.397064447E-3,-2.145600319E-2,-3.732395172E-2
1.454945605E1,-1.576989889E-3,3.210783005E-3,-7.200241089E-4
1.455949628E1,3.285169601E-3,-2.617359161E-3,1.449394226E-2
1.456953651E1,-6.249129772E-3,-1.166582108E-3,-1.575469971E-2
1.457957674E1,6.850361824E-4,-1.913785934E-2,4.729175568E-2
1.458961697E1,-8.313775063E-3,-1.309633255E-3,3.842544556E-2
1.459968772E1,3.726747632E-2,1.821923256E-2,-2.810192108E-2
1.460972795E1,-3.523528576E-4,1.095056534E-3,4.886150360E-2
1.461976819E1,5.351093411E-2,7.195711136E-3,1.303558350E-1
1.462980842E1,7.594019175E-3,-1.748824120E-2,6.354045868E-2
1.463984865E1,6.148934364E-3,-2.597737312E-2,-2.730464935E-2
1.464988888E1,2.803385258E-3,1.769304276E-3,-8.212471008E-2
1.465992911E1,3.816518188E-2,1.372051239E-2,-2.893447876E-2
1.466996934E1,4.502567649E-2,1.228427887E-2,1.733779907E-2
1.468004009E1,2.330598235E-2,-2.893209457E-3,3.265476227E-2
1.469008032E1,2.477607131E-2,3.372907639E-3,-1.911640167E-2
1.470012055E1,1.619675756E-2,1.154708862E-2,4.389476776E-2
1.471016079E1,6.888955832E-3,2.636575699E-2,4.689121246E-2
1.472020102E1,5.730122328E-3,7.832288742E-3,7.391452789E-2
1.473024125E1,-1.161250472E-2,1.754069328E-2,5.535125732E-2
1.474028148E1,-1.233866811E-2,1.748013496E-2,3.221511841E-3
1.475035223E1,-1.268997788E-2,2.439475060E-2,-1.056671143E-3
1.476039246E1,-1.542133093E-2,2.404260635E-2,6.622314453E-3
1.477043269E1,-2.782458067E-2,3.331875801E-2,2.389335632E-2
1.478047292E1,-2.166426182E-2,9.642601013E-3,5.086612701E-2
1.479051316E1,-1.567754149E-2,1.724553108E-2,3.956794739E-2
1.480055339E1,-3.540048003E-2,-1.334118843E-2,6.780624390E-3
1.481059362E1,-3.365314007E-2,-2.958106995E-2,3.145217896E-2
1.482066437E1,-1.053455472E-2,-3.403139114E-2,6.565284729E-2
1.483070460E1,-3.397071362E-2,-4.726004601E-2,-5.791187286E-2
1.484074483E1,-2.787312865E-2,-2.626848221E-2,1.686191559E-2
1.485078506E1,-8.222460747E-5,-3.150320053E-2,6.055831909E-4
1.486082529E1,-1.951813698E-3,1.784253120E-2,-1.430511475E-3
1.487086552E1,2.241939306E-2,9.735345840E-3,-8.248329163E-3
1.488090576E1,1.458287239E-3,-5.204439163E-3,2.573204041E-2
1.489094599E1,-5.097001791E-3,1.861810684E-3,1.194667816E-2
1.490101674E1,2.512156963E-3,1.638031006E-2,1.498413086E-2
1.491105697E1,3.819966316E-2,-2.359247208E-2,4.208183289E-2
1.492109720E1,9.848713875E-3,-2.053236961E-2,2.849197388E-2
1.493113743E1,1.750659943E-2,-2.716016769E-2,1.488399506E-2
1.494117766E1,3.253734112E-2,6.352424622E-3,1.552009583E-2
1.495121789E1,3.550797701E-2,-8.156538010E-3,5.443477631E-2
1.496125812E1,2.165806293E-2,-8.517503738E-3,2.626419067E-2
1.497132887E1,-1.632839441E-3,-1.606225967E-3,1.249313354E-2
1.498136910E1,1.056545973E-2,-1.748323441E-3,1.136779785E-3
1.499140934E1,2.014788985E-2,2.913808823E-2,1.609325409E-2
1.500144957E1,6.053179502E-3,1.741003990E-2,-4.736900330E-3
1.501148980E1,-1.008522511E-2,5.768299103E-2,1.021003723E-2
1.502153003E1,6.900936365E-3,8.222556114E-2,5.356788635E-2
1.503160078E1,2.906697989E-2,2.743554115E-2,6.390285492E-2
1.504164101E1,5.806532502E-2,-3.597736359E-3,1.005239487E-1
1.505168124E1,1.629593968E-2,-1.571774483E-2,6.291103363E-2
1.506172147E1,-3.980219364E-3,-6.931066513E-3,-1.793670654E-2
1.507176170E1,-2.597093582E-3,2.120637894E-2,-3.169250488E-2
1.508180194E1,-1.059257984E-2,2.336096764E-2,2.168273926E-2
1.509184217E1,-1.359960437E-2,2.789497375E-5,1.061534882E-2
1.510191292E1,-3.073510528E-2,2.202653885E-2,-6.511688232E-2
1.511195315E1,4.978895187E-3,2.251076698E-2,1.000308990E-2
1.512199338E1,9.425997734E-3,1.877951622E-2,1.666517258E-1
1.513203361E1,2.571648359E-2,1.758146286E-2,2.108058929E-1
1.514207384E1,8.197367191E-3,-1.819372177E-3,-3.027343750E-2
1.515211407E1,-1.735827327E-2,-2.713012695E-2,-1.638813019E-1
1.516215431E1,9.356260300E-3,-3.508162498E-2,-1.724147797E-2
1.517222505E1,-2.567249537E-2,-4.829812050E-2,1.012897491E-2
1.518226529E1,-3.501176834E-4,-5.693268776E-2,-3.862285614E-2
1.519230552E1,-2.031534910E-2,-3.506302834E-2,-3.243160248E-2
1.520234575E1,3.301098943E-2,-1.875877380E-3,-3.119945526E-2
1.521238598E1,-1.839110255E-2,-3.919601440E-4,1.159791946E-1
1.522242621E1,-1.032784581E-2,1.405405998E-2,9.525394440E-2
1.523246644E1,-7.935762405E-4,2.932786942E-3,1.483793259E-1
1.524253719E1,1.278865337E-2,1.214051247E-2,6.236743927E-2
1.525257742E1,-4.237860441E-3,1.408958435E-2,-3.560256958E-2
1.526261765E1,3.298640251E-2,5.212926865E-2,-2.334403992E-2
1.527265789E1,5.381286144E-3,3.933358192E-2,1.276016235E-3
1.528269812E1,4.101455212E-3,2.079272270E-2,-1.344680786E-4
1.529273835E1,1.440450549E-2,2.480220795E-2,-1.343727112E-3
1.530280910E1,-1.806885004E-3,-1.421463490E-2,9.430885315E-3
1.531284933E1,6.870627403E-4,-2.214944363E-2,5.610084534E-2
1.532288956E1,-3.858268261E-3,-2.783310413E-2,3.571128845E-2
1.533292979E1,-1.969408989E-2,-2.440333366E-2,4.876899719E-2
1.534297002E1,-6.327539682E-3,1.426577568E-2,1.621818542E-2
1.535301026E1,-2.071261406E-2,3.311324120E-2,1.947689056E-2
1.536308100E1,-3.019103408E-2,9.182214737E-3,-1.133918762E-3
1.537312124E1,-1.228129864E-2,6.768465042E-3,-1.460075378E-2
1.538316147E1,6.157869101E-2,-2.180826664E-2,7.488059998E-2
1.539320170E1,-1.213917136E-2,-3.798568249E-2,6.462097168E-3
1.540324193E1,2.249163389E-2,6.980776787E-3,8.389091492E-2
1.541328216E1,6.208717823E-3,-5.152702332E-3,9.673690796E-2
1.542332239E1,-3.913369775E-2,-1.243484020E-2,-1.251220703E-2
1.543339314E1,-3.455650806E-2,-2.196252346E-2,-6.188106537E-2
1.544343337E1,-8.273154497E-3,-2.862393856E-2,-7.523155212E-2
1.545347360E1,-1.228365302E-2,-2.682507038E-2,2.813339233E-4
1.546351384E1,-1.849403977E-2,-4.130482674E-2,-5.507469177E-3
1.547355407E1,9.834319353E-3,-2.081048489E-2,4.834270477E-2
1.548359430E1,1.575885713E-2,-8.346199989E-3,2.060890198E-2
1.549366505E1,5.070082843E-2,-1.093864441E-3,1.914119720E-2
1.550370528E1,8.221778274E-2,2.664458752E-2,1.505565643E-2
1.551374551E1,4.810026288E-2,3.061187267E-2,1.104736328E-2
1.552378574E1,3.349851072E-2,2.524006367E-2,5.019569397E-2
1.553382597E1,9.955480695E-3,4.166078568E-2,2.716541290E-2
1.554386620E1,-2.233338356E-2,5.308926105E-2,2.567100525E-2
1.555390644E1,-4.910618067E-3,5.983626842E-2,3.137016296E-2
1.556397718E1,1.438622177E-2,3.858232498E-2,3.241443634E-2
1.557401742E1,1.921255887E-2,8.488655090E-3,3.599357605E-2
1.558405765E1,2.170950174E-2,-7.096529007E-3,-5.885124207E-3
1.559409788E1,1.028436422E-2,-1.774203777E-2,-4.624366760E-3
1.560413811E1,6.588190794E-3,1.480579376E-2,-3.329277039E-3
1.561420886E1,-6.219089031E-3,1.208615303E-2,-4.296302795E-3
1.562424909E1,-1.185826957E-2,-7.390618324E-3,4.502010345E-2
1.563428932E1,-3.395724297E-2,6.561756134E-3,2.250289917E-2
1.564432955E1,-2.506220341E-2,1.781404018E-2,4.718780518E-3
1.565436978E1,-9.163349867E-3,1.229488850E-2,2.044868469E-2
1.566441002E1,-2.876132727E-3,-5.201458931E-3,7.452011108E-3
1.567445025E1,2.008166909E-2,1.324796677E-2,-1.750946045E-2
1.568452100E1,-4.253521562E-3,-1.126813889E-2,-5.200862885E-2
1.569456123E1,-5.262941122E-4,-1.674997807E-2,3.556346893E-2
1.570460146E1,1.499108970E-2,-3.539776802E-2,1.082420349E-2
1.571464169E1,-9.423598647E-3,-3.266537189E-2,-4.350662231E-3
1.572468192E1,-1.655147970E-2,-4.632508755E-2,1.886177063E-2
1.573472215E1,-6.315410137E-2,-5.449986458E-2,1.589107513E-2
1.574479290E1,-2.585753798E-2,-4.447913170E-2,1.509571075E-2
1.575483313E1,-6.483152509E-3,-8.973121643E-3,2.849006653E-2
1.576487337E1,-9.833976626E-3,2.152931690E-2,-6.008148193E-3
1.577491360E1,-1.707708836E-2,2.570712566E-2,9.796142578E-3
1.578495383E1,-1.038175821E-2,1.571071148E-2,1.365756989E-2
1.579499406E1,7.808431983E-3,3.214979172E-2,-6.413459778E-3
1.580503429E1,-7.335573435E-3,1.776003838E-2,1.427745819E-2
1.581510504E1,1.335933805E-3,2.032148838E-2,8.663177490E-3
1.582514527E1,-6.893619895E-3,1.128649712E-2,-1.364612579E-2
1.583518550E1,1.346573234E-3,5.900180340E-2,-1.692771912E-2
1.584522573E1,-2.853298187E-2,-1.657927036E-2,-8.025169373E-3
1.585526597E1,1.172234118E-2,-6.298899651E-3,6.303787231E-2
1.586530620E1,1.297116280E-2,2.768230438E-2,5.508613586E-2
1.587534643E1,1.772642136E-2,1.128506660E-2,6.390285492E-2
1.588541718E1,2.005277574E-2,-1.270914078E-2,3.913116455E-2
1.589545741E1,-1.152518392E-2,-1.074445248E-2,-1.204586029E-2
1.590549764E1,-1.691712439E-2,1.034808159E-2,-4.168033600E-2
1.591553787E1,1.834467053E-2,4.126214981E-2,-3.057003021E-2
1.592557810E1,-5.976632237E-2,6.178140640E-3,-2.643299103E-2
1.593561834E1,1.339530945E-2,7.341504097E-3,-3.124237061E-3
1.594565857E1,2.418220043E-2,1.137757301E-2,-2.522468567E-2
1.595572932E1,2.419067919E-2,-5.532622337E-3,2.941417694E-2
1.596576955E1,2.909846604E-2,-2.686452866E-2,1.008777618E-1
1.597580978E1,6.090253592E-4,-1.040053368E-2,1.219806671E-1
1.598585001E1,-2.184316516E-3,-4.246222973E-2,-5.477905273E-3
1.599589024E1,-8.097529411E-3,-5.551242828E-2,-8.508777618E-2
1.600593047E1,-1.614539325E-2,-4.913020134E-2,-8.084774017E-2
1.601600122E1,-1.199935377E-2,-2.082610130E-2,-5.020523071E-2
1.602604145E1,1.629626751E-2,-1.318728924E-2,-4.814147949E-2
1.603608168E1,2.548339963E-2,2.750921249E-2,8.914947510E-3
1.604612192E1,2.034184337E-2,2.237665653E-2,6.591606140E-2
1.605616215E1,1.754708588E-2,2.124190331E-3,1.299753189E-1
1.606620238E1,-1.178906858E-2,-7.339596748E-3,1.076459885E-1
1.607627313E1,8.559018373E-3,5.080270767E-2,3.712368011E-2
1.608631336E1,-1.430483162E-2,3.999114037E-3,1.934337616E-2
1.609635359E1,-1.681894064E-4,3.629291058E-2,-2.717590332E-2
1.610639382E1,-2.633395791E-2,2.251720428E-2,-3.503513336E-2
1.611643405E1,-3.478527069E-2,4.059529305E-2,-2.599811554E-2
1.612647428E1,-1.732547581E-2,6.113326550E-2,-2.592086792E-3
1.613654503E1,8.699044585E-3,3.937447071E-2,2.331924438E-2
1.614658526E1,-6.045356393E-3,2.484571934E-2,2.529430389E-2
1.615662550E1,5.217194557E-4,1.260256767E-2,1.049041748E-2
1.616666573E1,-1.450963318E-2,1.712727547E-2,-5.459213257E-2
1.617670596E1,-2.195759118E-2,-1.425051689E-2,2.398872375E-2
1.618674619E1,-2.749219537E-3,-2.632880211E-2,-3.626537323E-2
1.619681694E1,-7.303580642E-3,-2.865946293E-2,3.519344330E-2
1.620685717E1,-1.653593779E-2,-3.068423271E-2,2.769565582E-2
1.621689740E1,1.929387450E-2,-1.611149311E-2,3.931713104E-2
1.622693763E1,-4.614084959E-3,-8.907437325E-3,7.817268372E-3
1.623697786E1,2.605974674E-2,-6.878376007E-3,3.131389618E-2
1.624701810E1,-5.625069141E-3,-2.954006195E-4,1.242036819E-1
1.625708885E1,-2.573689818E-2,-3.500819206E-3,3.030586243E-2
1.626712908E1,1.589283347E-3,-4.707217216E-3,-4.690265656E-2
1.627716931E1,1.486235857E-2,-2.465951443E-2,-9.770393372E-2
1.628720954E1,3.327462077E-2,1.482725143E-3,-4.066181183E-2
1.629724977E1,3.277951479E-2,2.114057541E-3,1.172542572E-2
1.630729000E1,1.096960902E-2,-3.270292282E-2,6.897830963E-2
1.631733023E1,1.762442291E-2,-8.429765701E-3,3.512668610E-2
1.632740098E1,1.464186609E-2,-1.574015617E-2,-1.076602936E-2
1.633744121E1,3.079962730E-2,5.315184593E-3,-8.832931519E-3
1.634748144E1,2.554942667E-2,1.447439194E-2,5.086898804E-3
1.635752168E1,6.199046969E-3,1.718354225E-2,2.391433716E-2
1.636756191E1,1.757356524E-2,4.100680351E-2,2.112102509E-2
1.637760214E1,4.998937249E-3,2.928233147E-2,2.317142487E-2
1.638767289E1,4.379495978E-3,2.008664608E-2,-1.093864441E-3
1.639771312E1,-1.510432363E-2,2.747690678E-2,1.532363892E-2
1.640775335E1,1.057308912E-2,1.355731487E-2,3.416538239E-2
1.641779358E1,-1.898045838E-2,1.920223236E-3,2.904510498E-2
1.642783381E1,-5.743041635E-3,-1.464474201E-2,-4.291534424E-5
1.643787404E1,-2.317257226E-2,-1.238834858E-2,-3.396129608E-2
1.644791428E1,-5.620718002E-5,-7.472634315E-3,-3.198623657E-3
1.645798503E1,-3.271073103E-3,-9.488701820E-3,1.802635193E-2
1.646802526E1,7.873564959E-3,-2.336168289E-2,1.772117615E-2
1.647806549E1,-2.113236487E-2,-6.190180779E-3,6.551742554E-4
1.648810572E1,-2.125558257E-2,-8.214473724E-3,-6.836891174E-3
1.649814595E1,-2.502501011E-4,8.806347847E-3,-7.170677185E-3
1.650818618E1,1.598358154E-3,1.626646519E-2,1.165294647E-2
1.651822642E1,1.076345146E-2,-4.831910133E-3,1.135063171E-2
1.652829716E1,3.315985203E-3,-1.855361462E-2,-3.284454346E-3
1.653833740E1,1.023440063E-2,-4.133510590E-2,3.706932068E-3
1.654837763E1,-6.571277976E-3,-2.389144897E-2,1.541900635E-2
1.655841786E1,-1.368661225E-2,-1.365852356E-2,-1.836013794E-2
1.656845809E1,-6.751582026E-3,3.706932068E-3,1.727867126E-2
1.657849832E1,-2.617713809E-2,-2.803206444E-3,1.941013336E-2
1.658856907E1,-1.769125462E-3,1.269578934E-2,1.922893524E-2
1.659860930E1,-2.574920654E-3,1.090860367E-2,-9.783744812E-3
1.660864953E1,-7.772237062E-3,2.335000038E-2,1.865005493E-2
1.661868976E1,-3.096327186E-3,4.264402390E-2,-1.041889191E-2
1.662873000E1,1.130080223E-2,1.189517975E-2,1.250267029E-3
1.663877023E1,1.131716371E-2,-6.722807884E-3,-1.339149475E-2
1.664881046E1,1.590435207E-2,-2.501869202E-2,7.924079895E-3
1.665888121E1,2.767173946E-2,-9.849667549E-3,1.247215271E-2
1.666892144E1,8.551180363E-3,-4.274964333E-3,2.655982971E-3
1.667896167E1,-3.812104464E-3,-8.390069008E-3,-4.789352417E-3
1.668900190E1,-1.861497760E-2,1.380062103E-2,-7.450103760E-3
1.669904213E1,-2.355827391E-2,2.386629581E-2,9.023666382E-3
1.670911288E1,7.425859571E-3,5.593657494E-3,1.598072052E-2
1.671915311E1,1.471947134E-2,1.105105877E-2,5.163955688E-2
1.672919334E1,3.358466923E-2,-5.266308784E-3,6.331825256E-2
1.673923358E1,-4.053917527E-2,6.613254547E-3,4.858779907E-2
1.674927381E1,4.410742223E-2,-8.210778236E-3,1.941108704E-2
1.675931404E1,1.374381781E-2,-1.130771637E-2,-5.529117584E-2
1.676938479E1,-1.725478470E-2,7.557988167E-3,-6.047058105E-2
1.677942502E1,9.572893381E-3,-2.050507069E-2,-2.480125427E-2
1.678946525E1,-9.384199977E-3,2.300858498E-3,3.767013550E-3
1.679950548E1,9.778067470E-3,8.711457253E-3,-5.141353607E-2
1.680954571E1,2.873240411E-2,3.484725952E-3,-1.077842712E-2
1.681958594E1,-6.882712245E-3,-2.276086807E-2,7.303619385E-2
1.682965669E1,2.629873157E-2,-1.793158054E-2,1.424684525E-1
1.683969693E1,1.614934206E-2,5.278587341E-4,5.137825012E-2
1.684973716E1,-1.335541904E-2,9.331703186E-4,-6.384658813E-2
1.685977739E1,-2.351771295E-2,-2.154731750E-2,-1.022987366E-1
1.686981762E1,-3.531257808E-2,-1.653134823E-2,-7.832050323E-2
1.687985785E1,7.986485958E-3,-2.728462219E-2,-2.546787262E-2
1.688992860E1,1.315116882E-2,3.433227539E-4,2.261066437E-2
1.689996883E1,1.537746191E-2,4.146158695E-2,5.139923096E-2
1.691000906E1,7.052272558E-4,1.784670353E-2,9.453678131E-2
1.692004929E1,1.185834408E-2,3.176581860E-2,9.445858002E-2
1.693008953E1,1.111172140E-2,3.092241287E-2,4.883384705E-2
1.694012976E1,1.070956886E-2,4.487192631E-2,-1.348304749E-2
1.695016999E1,-1.981270313E-2,5.513894558E-2,-5.167961121E-2
1.696024074E1,-1.170849800E-2,5.024623871E-2,-2.738857269E-2
1.697028097E1,-1.517643034E-2,3.989136219E-2,-2.199077606E-2
1.698032120E1,7.417201996E-4,3.553497791E-2,-2.359199524E-2
1.699036143E1,9.491637349E-3,5.676746368E-4,6.009101868E-3
1.700040166E1,-1.785869896E-2,-1.272690296E-2,-2.832412720E-4
1.701044189E1,-4.364699125E-4,-7.112145424E-3,1.253318787E-2
1.702051264E1,-2.603584528E-2,-3.045213223E-2,3.773689270E-3
1.703055288E1,-1.317708194E-2,-2.514612675E-2,-1.217556000E-2
1.704059311E1,-2.161568403E-2,-2.732074261E-2,-1.379776001E-2
1.705063334E1,2.201862633E-2,-4.128158092E-2,5.882072449E-2
1.706067357E1,-2.027386427E-2,-4.292356968E-2,-2.412319183E-2
1.707071380E1,7.529169321E-3,-2.629661560E-2,-1.381397247E-2
1.708078455E1,2.275232971E-2,-1.426064968E-2,-1.087188721E-3
1.709082478E1,2.044735849E-2,-8.498787880E-3,1.655483246E-2
1.710086501E1,-1.269076765E-2,-3.098428249E-2,7.498168945E-2
1.711090524E1,2.317695320E-2,-5.767571926E-2,9.279441833E-2
1.712094548E1,-2.152693272E-2,-4.608988762E-2,-2.105998993E-2
1.713098571E1,8.406460285E-3,-4.205942154E-2,-8.228683472E-2
1.714105646E1,4.063725471E-2,-1.423287392E-2,-5.734348297E-2
1.715109669E1,3.706485033E-3,-4.993796349E-3,2.515983582E-2
1.716113692E1,3.526663780E-2,-2.370285988E-2,-1.672363281E-2
1.717117715E1,-3.010779619E-2,4.457473755E-3,5.378723145E-2
1.718121738E1,2.413617074E-2,2.480351925E-2,-5.775737762E-2
1.719125761E1,3.017266095E-2,5.378866196E-2,5.320453644E-2
1.720129784E1,6.591414660E-2,5.901622772E-2,-2.496814728E-2
1.721136859E1,4.979947209E-2,2.496516705E-2,3.118228912E-2
1.722140882E1,1.322768629E-2,3.221583366E-2,3.238773346E-2
1.723144906E1,3.875613213E-2,1.599466801E-2,3.367328644E-2
1.724148929E1,9.600147605E-3,5.163526535E-2,5.399417877E-2
1.725152952E1,3.915488720E-3,2.817130089E-2,-3.330516815E-2
1.726156975E1,-1.122681797E-2,3.102540970E-2,1.826572418E-2
1.727164050E1,1.162837446E-2,1.072275639E-2,-1.143646240E-2
1.728168073E1,-3.216667473E-2,2.612388134E-2,6.727218628E-3
1.729172096E1,-2.782358229E-2,1.758015156E-2,5.748748779E-3
1.730176119E1,-1.428776979E-2,-1.014959812E-2,1.913070679E-2
1.731180143E1,3.692135215E-3,-2.138245106E-2,2.767753601E-2
1.732184166E1,-1.428954303E-2,-3.275215626E-2,2.956390381E-4
1.733191240E1,-1.026299596E-2,-2.796328068E-2,2.310562134E-2
1.734193400E1,-1.305508614E-2,-1.878178120E-2,1.712989807E-2
1.735197423E1,-2.740378678E-2,-4.060363770E-2,1.597785950E-2
1.736201446E1,-2.528032660E-2,-6.929922104E-2,1.487827301E-2
1.737205469E1,-1.178842783E-2,-3.748869896E-2,2.544021606E-2
1.738209491E1,-1.101979613E-2,-1.648080349E-2,2.380371094E-2
1.739216566E1,3.296375275E-3,-3.993749619E-3,4.106998444E-2
1.740220589E1,-3.763502836E-2,-9.468793869E-3,-1.731872559E-3
1.741224612E1,6.947547197E-2,-4.829168320E-3,8.202552795E-2
1.742228634E1,1.376189291E-2,7.113218307E-4,1.511564255E-1
1.743232657E1,-5.540975928E-2,-1.494693756E-2,-1.941776276E-2
1.744236680E1,-1.087468415E-1,-3.208792210E-2,-8.960437775E-2
1.745240703E1,-3.396184742E-2,-1.425087452E-2,-9.298992157E-2
1.746247777E1,7.510004938E-2,-1.047480106E-2,-6.999969482E-4
1.747251800E1,7.947531343E-2,-3.682434559E-2,4.858303070E-2
1.748255823E1,5.048128963E-2,-1.435792446E-2,3.823089600E-2
1.749259846E1,1.650896668E-2,-1.950168610E-2,-3.647041321E-2
1.750263869E1,1.304447651E-3,8.052110672E-3,-2.706241608E-2
1.751267891E1,1.833437383E-2,1.269054413E-2,-5.533218384E-3
1.752271914E1,2.802984416E-2,2.033317089E-2,2.806568146E-2
1.753275937E1,3.549422324E-2,-9.668231010E-3,6.657218933E-2
1.754279960E1,2.401603758E-2,-1.563918591E-2,4.284858704E-2
1.755287034E1,1.711550355E-2,-5.085706711E-3,-1.922702789E-2
1.756291057E1,-1.741781831E-3,5.617141724E-3,-6.930541992E-2
1.757295080E1,-8.719906211E-3,-4.135012627E-3,-1.624774933E-2
1.758299103E1,-2.438314259E-2,5.628347397E-3,8.758449554E-2
1.759303126E1,-3.909711540E-2,8.995056152E-3,7.222175598E-3
1.760307148E1,-1.288628578E-2,5.048120022E-2,-1.018943787E-1
1.761311171E1,2.296207845E-2,4.424095154E-2,-8.647918701E-2
1.762315194E1,3.179824352E-2,4.048311710E-2,1.204757690E-1
1.763322268E1,9.459242225E-3,-3.299474716E-3,9.770870209E-2
1.764326291E1,-8.273392916E-3,-5.455422401E-2,-6.157779694E-2
1.765330314E1,3.069144487E-2,-3.497266769E-2,-1.754570007E-2
1.766334337E1,1.262207329E-2,-2.743887901E-2,7.431411743E-2
1.767338360E1,-4.001271725E-2,-3.097069263E-2,2.750587463E-2
1.768342383E1,-2.008520067E-2,-8.244276047E-3,-1.054868698E-1
1.769346405E1,-2.129490674E-2,3.119063377E-2,-1.091880798E-1
1.770350428E1,2.569940686E-2,2.810335159E-2,-2.179622650E-2
1.771357503E1,8.553251624E-3,4.423129559E-2,1.039314270E-1
1.772361526E1,3.259539604E-3,4.585385323E-2,1.051368713E-1
1.773365548E1,2.593190968E-2,2.324831486E-2,9.670066833E-2
1.774369571E1,7.947698236E-3,2.115464211E-2,1.146507263E-2
1.775373594E1,4.653081298E-3,1.902484894E-2,5.243301392E-3
1.776377617E1,-2.932716906E-2,-2.532303333E-2,3.983497620E-3
1.777381640E1,-3.247274458E-2,-1.395082474E-2,-4.264736176E-2
1.778388714E1,-4.488323629E-2,-4.458308220E-2,-6.272697449E-2
1.779392737E1,-2.197448909E-2,-2.752935886E-2,-1.102638245E-2
1.780396760E1,-2.049688995E-2,-5.293941498E-2,3.122520447E-2
1.781400782E1,-2.894267440E-3,-5.679368973E-2,6.389236450E-2
1.782404805E1,1.236946881E-2,-3.741848469E-2,6.052112579E-2
1.783408828E1,6.678119302E-3,1.233971119E-2,3.548240662E-2
1.784412851E1,2.986654639E-2,-5.409359932E-3,-4.002571106E-3
1.785419925E1,1.983559132E-2,1.213967800E-2,-7.678985596E-3
1.786423948E1,-4.389554262E-3,1.747059822E-2,-2.575969696E-2
1.787427971E1,2.365221083E-2,-8.130073547E-3,-3.902244568E-2
1.788431994E1,3.687986732E-2,-2.311587334E-3,-5.463027954E-2
1.789436017E1,3.331768513E-2,-9.667873383E-4,3.038120270E-2
1.790440039E1,2.519451082E-2,-1.814258099E-2,1.131324768E-1
1.791444062E1,2.088169754E-2,-1.597094536E-2,7.140064240E-2
1.792448085E1,1.136341691E-2,-2.137315273E-2,-2.068996429E-2
1.793455160E1,1.959919930E-3,-3.088665009E-2,-5.996894836E-2
1.794459182E1,2.404780686E-2,-6.058633327E-2,-3.192615509E-2
1.795463205E1,6.293922663E-3,-4.960715771E-2,-3.498077393E-2
1.796467228E1,2.528786659E-3,-6.008708477E-2,-9.289741516E-3
1.797471251E1,-1.404821873E-3,-3.569936752E-2,3.295516968E-2
1.798475274E1,-2.528131008E-4,-4.474163055E-3,3.923225403E-2
1.799482348E1,-1.035702229E-2,-7.067441940E-3,1.195621490E-2
1.800486371E1,5.786657333E-3,1.896965504E-2,1.421928406E-3
1.801490394E1,1.432439685E-2,3.303182125E-2,4.577636719E-4
1.802494416E1,1.663386822E-3,2.320420742E-2,5.458545685E-2
1.803498439E1,1.095703244E-2,-2.223801613E-2,4.175376892E-2
1.804502462E1,-8.119940758E-3,-3.594160080E-3,3.361225128E-2
1.805506485E1,-2.269896865E-2,7.189393044E-3,2.532958984E-2
1.806510508E1,1.711446047E-2,3.851687908E-2,3.837203979E-2
1.807514530E1,1.862740517E-2,2.240383625E-2,2.996158600E-2
1.808521605E1,1.345357299E-2,-1.187098026E-2,-1.653289795E-2
1.809525628E1,-8.227109909E-3,-9.677886963E-3,1.371574402E-2
1.810529651E1,-2.731063962E-2,-1.168036461E-2,2.973461151E-2
1.811533674E1,-2.528843284E-2,-1.391458511E-2,1.217937469E-2
1.812537696E1,-2.734571695E-3,2.635383606E-2,-2.707290649E-2
1.813541719E1,-2.236604691E-3,3.687310219E-2,-4.301071167E-3
1.814545742E1,-8.734673262E-3,1.388382912E-2,4.116058350E-3
1.815552816E1,7.160633802E-3,-1.756668091E-3,3.175354004E-2
1.816556839E1,-3.103479743E-2,-2.977132797E-3,6.422328949E-2
1.817560862E1,1.942089200E-2,-4.858946800E-2,-1.319885254E-2
1.818564885E1,5.216300488E-3,-4.424738884E-2,2.184295654E-2
1.819568908E1,-2.323001623E-3,-5.789089203E-2,-5.061340332E-2
1.820572931E1,-1.556229591E-2,-2.416038513E-2,1.234006882E-1
1.821576953E1,-1.956856251E-2,-2.313256264E-2,-1.365756989E-2
1.822580976E1,-2.948278189E-2,-2.489113808E-2,6.711864471E-2
1.823588051E1,-3.139233589E-2,-6.916522980E-4,2.334594727E-2
1.824592074E1,9.055703878E-3,1.846313477E-3,5.375194550E-2
1.825596096E1,7.779657841E-3,1.323747635E-2,7.918453217E-2
1.826600119E1,1.511549950E-2,3.300929070E-2,8.756542206E-2
1.827604142E1,1.469612122E-2,3.297352791E-2,2.156639099E-2
1.828608165E1,2.535137534E-2,5.979275703E-2,-4.175186157E-3
1.829612188E1,2.405217290E-2,6.227684021E-2,3.224849701E-2
1.830616210E1,9.325236082E-3,7.587885857E-2,5.414772034E-2
1.831620233E1,9.715110064E-3,5.039882660E-2,-7.919216156E-2
1.832627308E1,1.152235270E-2,3.702521324E-2,-1.454172134E-1
1.833631330E1,3.796988726E-2,-1.085448265E-2,1.135826111E-2
1.834635353E1,5.496889353E-2,-5.270361900E-2,1.516599655E-1
1.835639376E1,6.138533354E-2,-5.868005753E-2,5.010890961E-2
1.836643399E1,3.056627512E-2,-6.346416473E-2,-1.738567352E-1
1.837647422E1,1.627147198E-3,-7.534551620E-2,-8.178329468E-2
1.838651444E1,9.083300829E-3,-7.581138611E-2,1.088886261E-1
1.839658519E1,5.130797625E-3,-6.862759590E-2,-4.460906982E-2
1.840662542E1,1.889592409E-2,-6.143379211E-2,-1.190538406E-1
1.841666565E1,-9.252250195E-3,-4.990386963E-2,-4.271888733E-2
1.842670587E1,-8.073598146E-3,-4.341769218E-2,5.752754211E-2
1.843674610E1,-2.094343305E-2,-3.032088280E-2,9.062480927E-2
1.844678633E1,-2.207943797E-2,-1.077556610E-2,8.763599396E-2
1.845682656E1,-4.230797291E-3,-2.750539780E-2,7.019996643E-2
1.846689730E1,-1.487556100E-2,-1.552343369E-3,1.197814941E-2
1.847693753E1,-3.013786674E-2,1.939392090E-2,-1.515865326E-2
1.848697776E1,-1.939678192E-2,4.424333572E-3,3.431224823E-2
1.849701799E1,-2.003887296E-2,1.375675201E-2,4.884719849E-3
1.850705822E1,-4.121208191E-2,-1.951885223E-2,-2.839088440E-3
1.851709844E1,-3.620055318E-2,-4.742383957E-2,2.309703827E-2
1.852713867E1,5.666285753E-3,-5.407547951E-2,6.807231903E-2
1.853717890E1,8.885353804E-3,-2.096748352E-2,4.578018188E-2
1.854724964E1,1.421824098E-2,-2.164173126E-2,1.623630524E-2
1.855728987E1,-6.103426218E-3,2.273440361E-2,-3.807067871E-3
1.856733010E1,-2.043989301E-2,5.444002151E-2,7.151603699E-3
1.857737033E1,5.038201809E-3,6.654763222E-2,4.191589355E-2
1.858741056E1,2.215310931E-2,4.774212837E-2,4.078006744E-2
1.859745079E1,4.285618663E-2,5.024075508E-2,-2.270412445E-2
1.860749101E1,3.961041570E-2,2.216172218E-2,-3.337955475E-2
1.861753124E1,6.162455678E-2,3.684043884E-3,7.802009583E-2
1.862760199E1,8.786231279E-3,1.432919502E-2,1.129674911E-1
1.863764222E1,1.097488403E-2,1.770782471E-2,1.851081848E-3
1.864768244E1,2.917528152E-3,-5.054473877E-4,-8.296012878E-2
1.865772267E1,1.693978906E-2,-3.884196281E-2,-4.591941833E-3
1.866776290E1,-1.091700792E-2,-2.377748489E-2,-1.218509674E-2
1.867780313E1,4.341155291E-3,-4.177093506E-2,6.679534912E-3
1.868784336E1,-9.879112244E-3,-1.289105415E-2,3.006267548E-2
1.869788358E1,6.470948458E-3,1.018285751E-3,3.001213074E-3
1.870795433E1,1.129996777E-2,4.940271378E-3,6.982803345E-3
1.871799456E1,9.992510080E-3,-1.498413086E-2,1.342296600E-2
1.872803479E1,1.175644994E-2,-2.918100357E-2,2.013015747E-2
1.873807501E1,-7.200837135E-4,-2.855730057E-2,6.284713745E-4
1.874811524E1,3.171712160E-3,-4.148101807E-2,-4.307746887E-3
1.875815547E1,-2.216243744E-2,-3.720521927E-2,2.437877655E-2
1.876819570E1,-4.022452235E-2,-4.417133331E-2,4.129409790E-2
1.877823592E1,-1.070669293E-2,-6.018114090E-2,3.440380096E-2
1.878830667E1,2.811288834E-2,-4.974627495E-2,3.951549530E-2
1.879834690E1,2.625566721E-2,-5.351853371E-2,5.186367035E-2
1.880838713E1,5.279690027E-3,-3.671407700E-2,6.511688232E-3
1.881842735E1,-2.258357406E-2,-3.037786484E-2,-2.229309082E-2
1.882846758E1,-2.492457628E-3,1.068997383E-2,6.061553955E-3
1.883850781E1,3.305405378E-3,8.356332779E-3,1.998043060E-2
1.884854804E1,1.590651274E-2,-8.474349976E-3,4.343223572E-2
1.885858827E1,3.260126710E-2,-8.528470993E-3,5.010986328E-2
1.886865901E1,6.900793314E-2,-2.717280388E-2,1.378154755E-2
1.887869924E1,5.539530516E-2,-2.173233032E-2,5.172729492E-2
1.888873947E1,3.083571792E-2,-3.739166260E-2,5.392456055E-2
1.889877970E1,6.519436836E-3,-3.568243980E-2,-5.946159363E-3
1.890881992E1,-7.930278778E-3,-4.961967468E-3,-3.220367432E-2
1.891886015E1,-2.877235413E-2,-1.412439346E-2,3.996086121E-2
1.892890038E1,-1.806539297E-2,2.430152893E-2,1.264390945E-1
1.893897113E1,6.421148777E-3,2.194833755E-2,-2.593040466E-3
1.894901135E1,1.851540804E-2,3.683543205E-2,-7.469463348E-2
1.895905158E1,1.145738363E-2,4.524016380E-2,1.182556152E-3
1.896909181E1,-1.861563325E-2,3.429150581E-2,8.662033081E-2
1.897913204E1,-5.673855543E-3,3.572034836E-2,7.640361786E-2
1.898917227E1,-3.561854362E-2,2.058053017E-2,6.864643097E-2
1.899921249E1,-5.819982290E-2,3.090858459E-3,1.302909851E-2
1.900925272E1,-5.407884717E-2,-2.886080742E-2,-7.132720947E-2
1.901932347E1,-4.159224033E-2,-2.561426163E-2,-9.358501434E-2
1.902936370E1,2.645924687E-2,-3.524398804E-2,9.701251984E-2
1.903940392E1,2.758398652E-2,-6.403923035E-2,1.942396164E-1
1.904944415E1,-4.133850336E-3,-8.154535294E-2,-1.038312912E-1
1.905948438E1,-6.502658129E-3,-4.226207733E-2,-1.076698303E-1
1.906952461E1,-5.132409930E-2,-3.478193283E-2,8.771991730E-2
1.907956484E1,-6.482654810E-2,-6.073379517E-2,-6.553649902E-3
1.908960506E1,-2.552282810E-2,-5.239033699E-2,-1.101751328E-1
1.909967581E1,-2.062869072E-2,-4.307055473E-2,-2.030086517E-2
1.910971604E1,-2.510517836E-2,-5.301761627E-2,8.152294159E-2
1.911975627E1,-2.886503935E-3,-3.243565559E-2,1.472816467E-1
1.912979649E1,2.445003390E-2,-2.489733696E-2,9.782505035E-2
1.913983672E1,4.439494014E-2,-2.373218536E-3,1.433944702E-2
1.914987695E1,5.859366059E-2,5.190348625E-2,3.804874420E-2
1.915991718E1,1.130129397E-1,2.033135891E-1,-6.528186798E-2
1.916995741E1,6.066560745E-4,9.621453285E-2,3.478145599E-2
1.918002815E1,-2.167621255E-2,-5.860328674E-3,-5.701065063E-3
1.919006838E1,-5.412817001E-3,-9.895634651E-2,3.745460510E-2
1.920010861E1,-7.013115287E-2,-7.543253899E-2,-9.746551514E-4
1.921014884E1,-7.438242435E-3,-8.549094200E-2,-8.899784088E-2
1.922018906E1,-1.856848598E-2,-6.153321266E-2,-1.234722137E-2
1.923022929E1,5.740004778E-2,-1.352381706E-2,-5.303859711E-2
1.924026952E1,4.942965508E-2,2.964305878E-2,3.314304352E-2
1.925030975E1,4.356312752E-2,7.270717621E-2,-7.608413696E-3
1.926038049E1,2.622312307E-2,6.415987015E-2,-2.649211884E-2
1.927042072E1,-2.631661296E-2,3.188776970E-2,3.132915497E-2
1.928046095E1,-4.288631678E-2,1.621842384E-2,1.728153229E-2
1.929050118E1,-4.977038503E-2,-1.602387428E-2,-2.065086365E-2
1.930054140E1,-2.275466919E-2,-3.573966026E-2,-3.343582153E-3
1.931058163E1,-2.899080515E-3,-6.441926956E-2,1.242733002E-1
1.932062186E1,3.695845604E-2,-6.388807297E-2,6.282711029E-2
1.933066209E1,2.081534266E-2,-4.497051239E-2,-4.675769806E-2
1.934073284E1,6.566345692E-2,-4.537463188E-2,-1.039218903E-2
1.935077306E1,-1.858472824E-3,-5.317711830E-2,3.079891205E-2
1.936081329E1,1.024848223E-2,-1.359128952E-2,5.032444000E-2
1.937085352E1,-1.818239689E-2,-1.514077187E-2,2.902984619E-2
1.938089375E1,-4.190233350E-2,1.034975052E-3,3.605461121E-2
1.939093398E1,-5.337175727E-2,1.653337479E-2,6.980895996E-3
1.940097420E1,-4.332190752E-2,1.955556870E-2,2.804088593E-2
1.941101443E1,-1.440206170E-2,1.509213448E-2,6.097507477E-2
1.942108518E1,-4.572063684E-3,3.354787827E-3,6.755065918E-2
1.943112540E1,-1.173877716E-2,-1.350951195E-2,4.768371582E-2
1.944116563E1,9.907990694E-3,-2.644062042E-3,1.317119598E-2
1.945120586E1,1.010105014E-2,-2.371525764E-2,2.870941162E-2
1.946124609E1,9.328037500E-3,-6.056404114E-2,4.141807556E-2
1.947128632E1,-4.220694304E-3,-4.143881798E-2,7.044029236E-2
1.948132654E1,-3.392913938E-2,-1.633906364E-2,1.295661926E-2
1.949139729E1,-2.213203907E-2,1.019716263E-3,-3.267288208E-2
1.950143752E1,-1.220226288E-2,4.479622841E-2,-2.797222137E-2
1.951147775E1,7.134795189E-3,6.255865097E-2,3.428173065E-2
1.952151797E1,4.344463348E-3,3.340363503E-2,8.204460144E-3
1.953155820E1,-6.225615740E-3,2.770829201E-2,1.789283752E-2
1.954159843E1,-1.700198650E-2,1.874208450E-3,9.708404541E-4
1.955163866E1,-2.256724238E-2,-1.419472694E-2,5.015373230E-3
1.956167889E1,-4.208689928E-2,-2.834415436E-2,4.173278809E-3
1.957171912E1,-1.912331581E-2,-3.511309624E-2,1.295280457E-2
1.958178986E1,-1.803717017E-2,-3.613424301E-2,-1.945495605E-3
1.959183009E1,-4.777044058E-3,-2.623414993E-2,-1.885509491E-2
1.960187032E1,2.309656143E-2,-6.514620781E-2,1.732063293E-2
1.961191054E1,1.348435879E-3,-5.801057816E-2,5.846691132E-2
1.962195077E1,-5.885064602E-3,-6.276869774E-2,7.330799103E-2
1.963199100E1,-6.031870842E-3,-5.192923546E-2,5.192852020E-2
1.964203123E1,2.820402384E-3,-3.229737282E-2,-7.963180542E-4
1.965210197E1,1.349374652E-2,-3.245830536E-3,-2.723884583E-2
1.966214220E1,-4.585415125E-3,1.771450043E-4,-3.207206726E-3
1.967218243E1,-1.741170883E-2,1.181578636E-2,7.139873505E-2
1.968222266E1,-4.163470864E-2,3.172636032E-3,-2.601909637E-2
1.969226288E1,-3.423187137E-2,2.167272568E-2,-1.854515076E-1
1.970230311E1,1.467317343E-2,5.472564697E-2,-9.580707550E-2
1.971234334E1,7.063063979E-2,1.155924797E-2,2.149171829E-1
1.972238357E1,6.298643351E-2,-1.246547699E-2,2.334966660E-1
1.973242380E1,2.178040147E-2,-4.105758667E-2,-4.785060883E-2
1.974249454E1,3.283202648E-3,-2.306199074E-2,-1.667737961E-1
1.975253477E1,1.673039794E-2,-1.352024078E-2,2.587509155E-2
1.976257500E1,2.388480306E-2,-4.533982277E-2,9.450721741E-2
1.977261523E1,-2.693146467E-3,-3.803586960E-2,-3.537464142E-2
1.978265546E1,-3.425329924E-3,-1.125574112E-3,-6.031990051E-2
1.979269568E1,-1.583570242E-2,-1.469850540E-2,8.850097656E-4
1.980273591E1,1.067805290E-2,9.386301041E-3,8.110141754E-2
1.981280666E1,3.668773174E-2,6.404471397E-2,8.393573761E-2
1.982284688E1,3.175738454E-2,4.842615128E-2,6.741237640E-2
1.983288711E1,-2.335160971E-2,3.278112411E-2,1.977062225E-2
1.984292734E1,-5.161434412E-3,1.705288887E-2,1.038837433E-2
1.985296757E1,-6.313771009E-3,2.591562271E-2,1.172065735E-3
1.986300780E1,-2.352985740E-2,-2.609562874E-2,4.303932190E-3
1.987304803E1,-3.936266899E-2,-5.197453499E-2,-6.326675415E-3
1.988311877E1,-2.229824662E-2,-6.536626816E-2,-1.684761047E-2
1.989315900E1,-2.923113108E-2,-4.853677750E-2,-3.652572632E-3
1.990319923E1,-2.898237109E-2,-4.667329788E-2,-2.576828003E-3
1.991323945E1,1.882344484E-3,-4.310679436E-2,-6.475448608E-3
1.992327968E1,3.553241491E-3,-4.255270958E-2,1.579666138E-2
1.993331991E1,1.663532853E-2,-2.323794365E-2,1.880168915E-2
1.994336014E1,3.205418587E-3,-2.547860146E-2,2.652168274E-3
