"Time (s)","Linear Acceleration x (m/s^2)","Linear Acceleration y (m/s^2)","Linear Acceleration z (m/s^2)"
3.482359500E-2,3.107577562E-3,-9.732134640E-5,1.452255249E-1
4.486383700E-2,3.807708621E-3,-2.216853201E-3,3.098850250E-1
5.490407700E-2,8.996091783E-4,-1.980528235E-3,2.183580399E-1
6.494431700E-2,-6.207571179E-2,-8.566498756E-3,-2.823734283E-2
7.498455700E-2,-2.465281636E-3,2.925663441E-2,-2.700548172E-1
8.502479700E-2,5.093106627E-2,4.901181534E-2,-3.203306198E-1
9.509555500E-2,1.241519302E-1,9.051946551E-2,-1.742610931E-1
1.051357950E-1,2.167005837E-1,6.983882189E-2,7.957458496E-2
1.151760360E-1,8.407311141E-2,1.217834800E-1,4.172182083E-1
1.252162770E-1,7.766208053E-2,1.268774867E-1,5.010681152E-1
1.352565170E-1,-3.631040454E-3,1.475961208E-1,4.962968826E-1
1.452967570E-1,4.107397795E-2,1.594970673E-1,2.496423721E-1
1.553369970E-1,2.819934487E-2,1.322602779E-1,5.084323883E-2
1.653772380E-1,3.460821509E-2,1.230885983E-1,-2.437286377E-1
1.754479950E-1,3.652613610E-2,7.933586836E-2,-3.275928497E-1
1.854882360E-1,-6.682962179E-3,2.933848649E-2,-3.826951981E-1
1.955284760E-1,3.659971803E-2,7.553331554E-3,-2.390451431E-1
2.055687170E-1,-2.378020436E-4,1.066505909E-3,-9.028530121E-2
2.156089570E-1,6.926371902E-2,-4.145972431E-3,6.781196594E-2
2.256491970E-1,2.856837399E-2,2.525769919E-2,2.019863129E-1
2.356894380E-1,1.006389484E-1,4.877402633E-2,1.829233170E-1
2.457296780E-1,1.035727635E-1,6.775597483E-2,2.500238419E-1
2.558004360E-1,1.589596272E-3,-6.715245545E-4,1.562290192E-1
2.658406760E-1,2.070643008E-3,-5.507506430E-4,1.683073044E-1
2.758809160E-1,-2.595037222E-5,-1.084990799E-5,1.204776764E-2
2.859211570E-1,3.612710908E-2,-3.114813380E-2,-6.696701050E-2
2.959613970E-1,-1.336666569E-2,-9.799855761E-3,-1.818952560E-1
3.060016380E-1,9.569232911E-2,5.222373176E-3,-1.459894180E-1
3.160418780E-1,4.388354346E-2,1.024821773E-2,-3.346347809E-2
3.260821180E-1,7.970549911E-2,1.391910203E-2,2.639389038E-2
3.361528760E-1,5.606494844E-2,-2.269928530E-2,1.987781525E-1
3.461931160E-1,6.043291837E-2,-1.671291701E-2,1.173782349E-1
3.562333560E-1,7.924880087E-2,-6.034205854E-2,1.796398163E-1
3.662735960E-1,3.712642193E-2,-2.442913316E-2,5.275154114E-2
3.763138380E-1,8.664648235E-2,-2.887235954E-2,4.318714142E-2
3.863540780E-1,1.179395616E-2,-2.708286047E-3,2.488136292E-3
3.963943180E-1,8.192077279E-2,1.482400950E-2,1.446723938E-2
4.064345580E-1,1.557323709E-2,4.992917180E-2,9.587001801E-2
4.164747980E-1,6.308123469E-2,6.121381372E-2,8.629894257E-2
4.265455560E-1,1.840469614E-2,1.207851525E-2,2.179861069E-1
4.365857960E-1,2.119431645E-2,-1.513617858E-2,6.476688385E-2
4.466260370E-1,5.220760033E-2,-4.902803153E-2,3.365707397E-2
4.566662780E-1,-3.821030259E-5,-4.683276638E-2,-1.434984207E-1
4.667065180E-1,7.957527041E-2,-1.100838110E-1,-2.105112076E-1
4.767467580E-1,1.584204286E-2,-9.742994606E-2,-3.301725388E-1
4.867869980E-1,7.678213716E-2,-8.154095709E-2,-3.109359741E-1
4.968272390E-1,2.279938012E-2,-8.065528423E-2,-1.958780289E-1
5.068979960E-1,1.439039037E-2,-4.464852810E-2,-1.023187637E-1
5.169382370E-1,8.537802845E-3,-3.640997410E-2,1.373376846E-1
5.269784770E-1,1.925978065E-2,-7.347106934E-3,1.902761459E-1
5.370187180E-1,5.577411875E-2,-1.667305827E-2,3.485593796E-1
5.470589580E-1,-4.145026207E-3,1.824389398E-2,2.482347488E-1
5.570991980E-1,7.356658578E-2,-3.162489831E-2,2.268295288E-1
5.671699560E-1,-2.494886518E-2,-3.443719447E-2,9.283924103E-2
5.772101960E-1,6.650751829E-2,-3.926838934E-2,9.086608887E-3
5.872504370E-1,3.694757447E-2,-1.825039089E-2,9.118080139E-3
5.972906770E-1,9.294301271E-2,1.261723042E-2,-5.069828033E-2
6.073309170E-1,5.146063119E-2,3.689447045E-2,1.073684692E-1
6.174016750E-1,4.097679257E-2,2.401098609E-2,6.195354462E-2
6.274419160E-1,5.127171427E-2,3.300671279E-2,7.879829407E-2
6.374821560E-1,4.133187979E-2,3.985857964E-2,6.213474274E-2
6.475223960E-1,-2.038586885E-3,2.839976549E-2,0.000000000E0
6.575626370E-1,1.190819778E-2,2.288728952E-2,-1.075935364E-1
6.676028770E-1,1.432724483E-2,1.691767573E-2,-2.055625916E-1
6.776736350E-1,6.363466382E-2,3.508096933E-2,-1.693897247E-1
6.877138750E-1,1.170070693E-1,2.687804401E-2,3.924179077E-2
6.977541150E-1,1.034778357E-1,-2.190154791E-2,2.311954498E-1
7.077943560E-1,4.873298109E-2,-1.138153672E-1,1.861486435E-1
7.178345960E-1,-1.950362325E-2,-1.462202668E-1,2.182960510E-3
7.278748370E-1,-1.136765908E-2,-1.371072829E-1,-1.722373962E-1
7.379455940E-1,2.564434893E-2,-1.064963937E-1,-2.939739227E-1
7.479858350E-1,9.176071733E-2,-6.741490960E-2,-2.384815216E-1
7.580260750E-1,1.315462291E-1,-4.580464959E-2,-4.644393921E-2
7.680663150E-1,1.040999517E-1,-6.414473057E-3,1.935367584E-1
7.781065550E-1,5.963955820E-2,3.978168964E-2,3.712787628E-1
7.881467960E-1,-4.114577547E-3,7.648575306E-2,4.603672028E-1
7.981870370E-1,-2.487631142E-2,7.647657394E-2,3.529167175E-1
8.082577940E-1,1.441652421E-2,7.037529349E-2,2.165899277E-1
8.182980350E-1,-1.336212270E-3,3.081983328E-2,2.270507812E-2
8.283382750E-1,1.900139451E-2,-2.157598734E-3,-1.209249496E-1
8.383785150E-1,-1.554558333E-2,-5.062702298E-2,-2.309837341E-1
8.484187550E-1,-1.436725538E-2,-7.725802064E-2,-2.547388077E-1
8.584589950E-1,-1.265311847E-3,-9.060811996E-2,-2.352380753E-1
8.685297530E-1,4.714421555E-2,-9.417170286E-2,-1.987514496E-1
8.785699940E-1,3.177597001E-2,-5.673512816E-2,-1.262111664E-1
8.886102350E-1,5.252020061E-2,-5.172395706E-2,-2.474880219E-2
8.986504750E-1,6.228064746E-2,-2.238303423E-2,9.832096100E-2
9.086907150E-1,7.440309227E-2,-7.057785988E-4,2.046470642E-1
9.187614730E-1,5.509388819E-2,1.006478071E-2,2.486896515E-1
9.288017130E-1,1.827703230E-2,1.611542702E-2,2.830600739E-1
9.388419530E-1,-4.650680348E-3,5.691647530E-4,1.521177292E-1
9.488821930E-1,6.067045499E-3,-1.004981995E-2,-5.274772644E-3
9.589224350E-1,2.932224795E-2,2.221107483E-3,-1.387729645E-1
9.689626750E-1,7.712927461E-2,-3.226220608E-3,-2.171077728E-1
9.790029150E-1,7.724049687E-2,-6.377220154E-3,-1.707897186E-1
9.890736730E-1,5.749719590E-2,-3.276902437E-2,-9.313488007E-2
9.991139130E-1,4.960712790E-2,-1.651817560E-2,3.974246979E-2
1.009154153E0,4.668713734E-2,-1.359248161E-2,8.892822266E-2
1.019194393E0,6.526452303E-2,3.996074200E-3,1.405687332E-1
1.029234634E0,9.452865273E-2,-5.492210388E-3,1.754341125E-1
1.039274875E0,8.115783334E-2,-1.552343369E-3,1.719627380E-1
1.049315115E0,7.037014514E-2,9.922564030E-3,1.324625015E-1
1.059385873E0,8.071350306E-2,-5.967497826E-3,6.178474426E-2
1.069426113E0,4.860074818E-2,-1.258075237E-3,-8.940696716E-3
1.079466353E0,2.658076212E-2,-2.795463800E-2,-3.178024292E-2
1.089506593E0,2.154872939E-2,-2.103650570E-2,-4.980278015E-2
1.099546834E0,1.902854070E-2,-5.376446247E-2,-6.053543091E-2
1.109587074E0,-4.711002111E-3,-5.738824606E-2,-9.275817871E-2
1.119657832E0,1.895415410E-2,-5.935788155E-2,-9.848117828E-2
1.129698072E0,5.547677726E-2,-5.957967043E-2,-1.040267944E-1
1.139738313E0,3.960475698E-2,-4.532599449E-2,-8.079433441E-2
1.149778553E0,1.960841194E-2,-2.393960953E-2,-3.597736359E-2
1.159818793E0,1.173326969E-1,-6.977760792E-2,-2.064056396E-1
1.169859034E0,6.628606468E-3,-1.653099060E-2,1.573085785E-2
1.179899274E0,5.820935220E-2,-4.886704683E-2,3.924751282E-2
1.189970032E0,-1.656461135E-2,-4.812359810E-2,1.488208771E-2
1.200010272E0,2.960686572E-2,-3.989225626E-2,-5.730247498E-2
1.210050512E0,-2.236782014E-2,-2.944242954E-2,-5.045318604E-2
1.220090753E0,3.527865559E-2,-3.006613255E-2,-1.679687500E-1
1.230130993E0,1.005276293E-2,-2.545797825E-2,-4.596519470E-2
1.240171234E0,4.276712984E-2,8.717179298E-3,-1.240444183E-2
1.250211474E0,8.613136411E-2,2.189338207E-2,2.152051926E-1
1.260282232E0,9.340247512E-2,-2.513146400E-2,2.010154724E-1
1.270322472E0,2.076395974E-2,7.320523262E-3,2.752313614E-1
1.280362712E0,2.963468432E-5,1.571643353E-2,2.031402588E-1
1.290402952E0,-1.350350678E-2,2.413988113E-3,1.044387817E-1
1.300443193E0,-1.936463267E-2,1.235139370E-2,-4.220294952E-2
1.310483434E0,-5.580790341E-3,-3.724575043E-3,-2.414512634E-1
1.320523674E0,4.015596956E-2,-1.755869389E-2,-3.302564621E-1
1.330594432E0,1.153383255E-1,-2.356231213E-2,-2.462520599E-1
1.340634672E0,1.475370228E-1,-2.130794525E-2,-6.598377228E-2
1.350674912E0,1.290052831E-1,-5.738508701E-2,3.804206848E-2
1.360715152E0,7.895556092E-2,-8.069789410E-2,6.084156036E-2
1.370755392E0,1.537796855E-2,-8.369827271E-2,6.198596954E-2
1.380795634E0,-1.774677634E-2,-6.353187561E-2,2.717208862E-2
1.390866391E0,2.327878773E-2,-3.546345234E-2,-9.879779816E-2
1.400906632E0,5.073979124E-2,-2.453684807E-2,-1.433563232E-1
1.410946872E0,9.268321097E-2,2.196764946E-2,-6.340980530E-2
1.420987112E0,1.148016825E-1,5.931115150E-2,9.527397156E-2
1.431027352E0,5.969784036E-2,7.775902748E-2,3.142986298E-1
1.441067592E0,-8.486650884E-3,6.845974922E-2,3.631658554E-1
1.451138350E0,-9.504081309E-2,5.121898651E-2,2.320051193E-1
1.461178590E0,-1.206325889E-1,9.985685349E-3,6.179332733E-2
1.471218832E0,-1.728088558E-1,-1.614260674E-2,-4.162693024E-2
1.481259072E0,3.933377564E-3,1.254088879E-1,-4.207324982E-2
1.491299312E0,2.656577900E-2,1.431349516E-1,-1.127719879E-2
1.501339552E0,9.821900725E-2,9.471130371E-2,-4.736232758E-2
1.511379792E0,2.317350805E-1,6.102228165E-2,-2.389736176E-1
1.521450550E0,2.313463390E-1,2.333343029E-2,-2.077512741E-1
1.531490790E0,2.244122475E-1,1.653575897E-2,-2.536487579E-2
1.541531031E0,3.355756998E-1,-2.722072601E-2,9.309005737E-2
1.551571272E0,4.828345776E-1,-1.090456247E-1,2.140426636E-1
1.561611512E0,4.369135499E-1,-1.533117294E-1,3.229713440E-1
1.571682270E0,1.811352968E-1,-1.608512402E-1,4.173393250E-1
1.581722510E0,1.395833492E-2,-9.144353867E-2,3.294448853E-1
1.591762750E0,-1.249283701E-1,-5.123865604E-2,5.432510376E-2
1.601802990E0,-2.085180879E-1,-3.454530239E-2,-1.852264404E-1
1.611843231E0,-2.197452486E-1,1.313745975E-2,-4.247999191E-1
1.621883471E0,-2.266086936E-1,3.286898136E-2,-4.430313110E-1
1.631923712E0,-3.389616311E-1,-1.289188862E-2,-2.402477264E-1
1.641994470E0,-4.840300977E-1,-3.271591663E-2,3.582000732E-3
1.652034710E0,-4.536217749E-1,-8.437120914E-2,2.352800369E-1
1.662074950E0,-2.986654639E-1,-1.143755913E-1,3.396663666E-1
1.672115190E0,-5.322076380E-2,-1.334741116E-1,2.590913773E-1
1.682155431E0,2.437361181E-1,-1.511987448E-1,8.693313599E-2
1.692195671E0,4.227029383E-1,-1.212502718E-1,-1.148605347E-2
1.702266429E0,4.602094889E-1,-1.034485102E-1,-2.136993408E-2
1.712306669E0,3.491313457E-1,-9.181535244E-2,1.205921173E-2
1.722346910E0,1.569584012E-1,-7.033610344E-2,3.361320496E-2
1.732387150E0,6.357379258E-3,-1.813006401E-2,3.837680817E-2
1.742427390E0,-9.622417390E-3,1.657533646E-2,7.174015045E-2
1.752467631E0,5.287388712E-2,4.972219467E-2,9.757995605E-2
1.762507871E0,9.082496166E-2,6.580233574E-2,8.689785004E-2
1.772578629E0,1.351310760E-1,8.042192459E-2,4.236984253E-2
1.782618869E0,1.410484165E-1,5.385279655E-2,1.265621185E-2
1.792659109E0,9.402364492E-2,3.218150139E-2,7.478713989E-3
1.802699350E0,3.389239311E-2,5.161285400E-3,7.523536682E-3
1.812739590E0,-5.556231737E-2,-1.446080208E-2,-1.152801514E-2
1.822779831E0,-1.056625769E-1,-1.289391518E-2,-5.459403992E-2
1.832820071E0,-5.142120272E-2,9.149551392E-3,-9.312534332E-2
1.842860311E0,3.710248321E-2,3.803896904E-2,-6.470012665E-2
1.852931069E0,8.852396905E-2,2.635741234E-2,2.121257782E-2
1.862971309E0,4.923661798E-2,-9.579658508E-4,4.752731323E-2
1.873011549E0,3.883159161E-2,5.262136459E-3,4.034233093E-2
1.883051789E0,-1.369415969E-2,-2.938055992E-2,8.581924438E-2
1.893092031E0,-2.165922523E-2,-3.107762337E-2,1.695051193E-1
1.903132271E0,-2.115543932E-2,-5.040621758E-2,1.716222763E-1
1.913172511E0,3.422245383E-3,-6.819009781E-2,8.258247375E-2
1.923243269E0,5.497984588E-2,-9.325623512E-2,-8.257007599E-2
1.933283509E0,1.274849474E-1,-8.649611473E-2,-7.622528076E-2
1.943323749E0,1.036851481E-1,-8.358740807E-2,1.122579575E-1
1.953363989E0,6.527567655E-2,-7.354903221E-2,2.097244263E-1
1.963404230E0,5.897926539E-2,-7.458782196E-2,7.938957214E-2
1.973444471E0,1.103738248E-1,-5.323457718E-2,-1.709976196E-1
1.983484711E0,7.879444212E-2,2.065348625E-2,-3.735218048E-1
1.993555469E0,6.801687926E-2,6.988525391E-2,-3.817081451E-1
2.003595709E0,4.754670709E-2,1.105456352E-1,-2.478275299E-1
2.013635949E0,2.231893688E-2,1.525387764E-1,-2.924823761E-2
2.023676189E0,2.949757129E-2,1.779386997E-1,2.186927795E-1
2.033716430E0,5.050319433E-2,1.666746140E-1,3.730792999E-1
2.043756670E0,5.786593631E-2,1.089880466E-1,4.500379562E-1
2.053827428E0,7.207055390E-2,4.433560371E-2,3.702745438E-1
2.063867669E0,2.172093093E-2,-1.041579247E-2,2.272100449E-1
2.073907909E0,8.373267949E-3,-7.905960083E-3,6.441783905E-2
2.083948149E0,-7.962912321E-3,-2.788114548E-2,-8.418750763E-2
2.093988389E0,-1.682727039E-2,-6.396746635E-2,-1.607789993E-1
2.104028630E0,1.497061551E-2,-5.770874023E-2,-1.244525909E-1
2.114099387E0,5.850850046E-2,-3.608894348E-2,-4.907131195E-2
2.124139628E0,4.412235320E-2,-2.282881737E-2,2.624511719E-3
2.134179868E0,3.310502321E-2,-8.818864822E-3,-5.779266357E-4
2.144220109E0,5.360354483E-2,-1.319336891E-2,-2.273845673E-2
2.154260349E0,2.150292695E-2,-2.442097664E-2,-3.760051727E-2
2.164300589E0,1.936294138E-3,-8.739280701E-2,7.469367981E-2
2.174340830E0,3.419487923E-2,-1.500055790E-1,2.373800278E-1
2.184411587E0,-4.919724166E-2,-1.548838615E-1,1.625261307E-1
2.194451828E0,-1.816597581E-2,-1.595578194E-1,1.541166306E-1
2.204492068E0,-1.279085875E-1,-8.702301979E-2,-1.753139496E-2
2.214532308E0,9.173028171E-3,-3.639268875E-2,-1.539611816E-1
2.224572549E0,5.626181141E-2,3.683042526E-2,-2.781286240E-1
2.234612789E0,1.682078987E-1,7.657074928E-2,-3.011112213E-1
2.244653030E0,1.849257946E-1,5.467987061E-2,-8.153057098E-2
2.254723787E0,1.525848508E-1,7.111525536E-2,3.329277039E-2
2.264764028E0,6.591274589E-2,6.712603569E-2,2.202110291E-1
2.274804268E0,4.714222252E-2,6.340742111E-2,3.634986877E-1
2.284844508E0,-1.226387173E-2,5.912065506E-2,3.504304886E-1
2.294884748E0,-4.401372373E-2,8.266210556E-3,2.215919495E-1
2.304924989E0,-2.627401054E-2,-2.881145477E-2,3.695774078E-2
2.314965230E0,2.141177654E-2,-4.597330093E-2,-1.241264343E-1
2.325005470E0,5.477466807E-2,-6.584644318E-2,-1.224832535E-1
2.335076228E0,9.195195884E-2,-4.891967773E-2,-7.992744446E-2
2.345116468E0,1.352131665E-1,3.157615662E-3,-7.770729065E-2
2.355156708E0,1.625089049E-1,6.784844398E-2,-1.160459518E-1
2.365196948E0,1.263004690E-1,7.611584663E-2,-9.665298462E-2
2.375237188E0,8.590720594E-2,5.661368370E-2,1.157283783E-2
2.385277430E0,3.243605047E-2,2.541542053E-3,1.249380112E-1
2.395348187E0,-8.585236967E-3,-2.765297890E-2,1.832256317E-1
2.405388428E0,-8.702360094E-3,-5.444169044E-2,2.268047333E-1
2.415428668E0,1.504185051E-2,-3.529381752E-2,1.645526886E-1
2.425468908E0,5.566407740E-2,3.140211105E-3,4.188060760E-2
2.435509148E0,9.764511138E-2,3.923797607E-2,-1.076965332E-1
2.445549388E0,1.061293408E-1,6.058835983E-2,-1.999044418E-1
2.455620146E0,9.501513094E-2,5.621218681E-2,-2.273197174E-1
2.465660386E0,3.052580357E-2,7.695102692E-2,-1.562862396E-1
2.475700628E0,-1.463773102E-2,6.951045990E-2,4.896068573E-2
2.485740868E0,-5.944046378E-2,6.115221977E-2,1.564159393E-1
2.495781108E0,-5.773986131E-2,9.410142899E-3,8.903503418E-2
2.505821348E0,9.622618556E-3,-3.867387772E-2,-1.150817871E-1
2.515861588E0,5.283450335E-2,-1.329989433E-1,-1.398210526E-1
2.525932346E0,-2.437359095E-2,-2.010090351E-1,-3.770828247E-2
2.535972586E0,-2.366108447E-2,-1.384208202E-1,-2.987098694E-2
2.546012827E0,2.950123698E-2,-3.479647636E-2,-9.360313416E-3
2.556053068E0,6.991188228E-2,5.770754814E-2,-2.511978149E-2
2.566093308E0,8.580158651E-2,9.245848656E-2,-4.332160950E-2
2.576133548E0,8.293922246E-2,7.906913757E-2,9.822177887E-2
2.586173788E0,7.901649922E-2,6.184840202E-2,2.759342194E-1
2.596244546E0,1.080421805E-1,3.387928009E-2,3.144998550E-1
2.606284786E0,4.724890739E-2,2.886462212E-2,2.014102936E-1
2.616325027E0,-8.455627412E-2,-3.379583359E-3,4.024791718E-2
2.626365267E0,-3.142576665E-2,-4.466390610E-2,-1.423091888E-1
2.636405507E0,5.702538788E-2,-1.009941101E-2,-2.526435852E-1
2.646445748E0,1.523781419E-1,3.157925606E-2,-2.211608887E-1
2.656516506E0,1.479148418E-1,6.744408607E-2,-1.247520447E-1
2.666556746E0,8.758591115E-2,1.097941399E-1,3.911781311E-2
2.676596986E0,2.148542553E-2,9.202480316E-2,1.981315613E-1
2.686637227E0,-1.371294260E-3,8.579063416E-2,2.511472702E-1
2.696677467E0,7.809886336E-2,8.427500725E-2,2.557363510E-1
2.706717707E0,9.979584068E-2,5.275988579E-2,8.710861206E-2
2.716788465E0,1.037611440E-1,3.732800484E-2,-1.247310638E-1
2.726828705E0,7.361359894E-2,-2.381324768E-3,-2.839527130E-1
2.736868946E0,9.787754714E-2,-5.979323387E-2,-2.584743500E-1
2.746909186E0,9.291255474E-2,-8.161258698E-2,-1.032247543E-1
2.756949427E0,2.013140172E-2,-6.843352318E-2,1.241893768E-1
2.766989667E0,-1.888826489E-3,-6.793570518E-2,2.748308182E-1
2.777060424E0,4.606582224E-3,-5.363464355E-3,3.267612457E-1
2.787100665E0,3.174761310E-2,3.477907181E-2,2.487249374E-1
2.797140905E0,9.777472913E-2,8.211159706E-2,1.194181442E-1
2.807181145E0,1.386615932E-1,1.131951809E-1,3.339195251E-2
2.817221386E0,1.172648966E-1,1.205151081E-1,-4.536247253E-2
2.827261627E0,8.973258734E-2,1.075657606E-1,-1.285972595E-1
2.837301867E0,5.115107074E-2,1.081467867E-1,-1.516208649E-1
2.847372624E0,3.088812903E-2,8.268427849E-2,-1.304616928E-1
2.857412865E0,3.410524502E-2,4.130756855E-2,-2.960205078E-2
2.867453105E0,-6.372269243E-3,1.658272743E-2,7.413768768E-2
2.877493345E0,-1.206770539E-3,-1.677048206E-2,1.469554901E-1
2.887533585E0,2.685741335E-2,-5.071878433E-3,1.861629486E-1
2.897573827E0,4.079730064E-2,-2.379477024E-2,1.484088898E-1
2.907614067E0,2.667484060E-2,-1.352643967E-2,3.600788116E-2
2.917654307E0,2.880401537E-2,-1.449203491E-2,-9.107685089E-2
2.927725065E0,3.759875894E-3,-2.361571789E-2,-1.800155640E-1
2.937765305E0,1.305565238E-3,-2.716386318E-2,-1.466712952E-1
2.947805545E0,-3.280628473E-3,-2.702689171E-2,-1.968288422E-2
2.957845785E0,-2.755622193E-2,-7.302761078E-3,1.169776917E-1
2.967886026E0,-1.151267812E-2,1.179099083E-2,1.840982437E-1
2.977926267E0,2.603152767E-2,3.636777401E-2,1.551437378E-1
2.987966507E0,3.868184239E-2,7.336902618E-2,4.638004303E-2
2.998006747E0,1.433201879E-2,7.212889194E-2,-4.867553711E-3
3.008077505E0,-9.019158781E-3,4.746592045E-2,-4.640293121E-2
3.018117745E0,-1.052123308E-2,-9.353280067E-3,-5.652904510E-2
3.028157985E0,-3.276549280E-3,-1.709270477E-2,-8.957862854E-3
3.038198226E0,1.233342290E-2,-3.336036205E-2,8.191394806E-2
3.048238466E0,4.354310036E-2,3.331661224E-3,1.656694412E-1
3.058278707E0,7.357321680E-2,3.884768486E-2,1.151571274E-1
3.068318947E0,7.327257097E-2,1.254558563E-1,-1.503086090E-2
3.078359187E0,6.711079180E-2,1.893543005E-1,-1.872053146E-1
3.088399428E0,8.082843572E-2,2.142530680E-1,-2.417373657E-1
3.098439668E0,1.073235571E-1,2.121673822E-1,-1.063995361E-1
3.108510426E0,5.933520943E-2,1.111894846E-1,1.177988052E-1
3.118550666E0,5.540504307E-2,5.289196968E-3,1.935119629E-1
3.128590906E0,2.742878795E-1,-8.074378967E-2,1.252746582E-1
3.138631147E0,3.778898418E-1,-1.590981483E-1,6.869411469E-2
3.148671387E0,3.144721389E-1,-1.959220171E-1,-1.174249649E-1
3.158711628E0,2.355817854E-1,-1.590987444E-1,-2.605199814E-1
3.168751868E0,1.181853712E-1,-1.311383247E-1,-2.478475571E-1
3.178792108E0,1.086976677E-1,-5.501616001E-2,-1.389398575E-1
3.188862866E0,2.238836884E-2,1.734006405E-2,2.861776352E-1
3.198903106E0,-5.632914603E-2,1.050429344E-1,4.381160736E-1
3.208943346E0,-7.251227647E-2,1.341915131E-1,5.607519150E-1
3.218983587E0,-1.471611112E-1,1.898488998E-1,3.594417572E-1
3.229023828E0,-5.132367462E-2,1.622776985E-1,1.263732910E-1
3.239064068E0,-1.099497750E-1,1.541180611E-1,-1.237316132E-1
3.249104308E0,-8.404047787E-2,1.030735970E-1,-2.588233948E-1
3.259175066E0,-1.625965089E-1,6.594419479E-2,-2.064752579E-1
3.269215306E0,-1.088041142E-1,-1.052033901E-2,-1.367883682E-1
3.279255546E0,-5.570504814E-2,-2.540278435E-2,-7.844924927E-2
3.289295786E0,5.821036175E-2,-7.940137386E-2,-3.628349304E-2
3.299336027E0,1.066930071E-1,-8.008921146E-2,5.991935730E-3
3.309376268E0,1.132475585E-1,-5.974781513E-2,1.501846313E-2
3.319447026E0,1.091554090E-1,-3.483021259E-2,4.872322083E-3
3.329487266E0,1.111663282E-1,2.736842632E-2,4.007816315E-2
3.339527506E0,4.953616112E-2,7.001805305E-2,9.440612793E-2
3.349567746E0,-8.483111858E-3,1.205772161E-1,1.700572968E-1
3.359607986E0,-5.666201562E-2,1.429272890E-1,1.041898727E-1
3.369648227E0,-7.935800403E-2,1.198217869E-1,-2.152442932E-2
3.379688467E0,-4.201938957E-2,5.039668083E-2,-1.901245117E-1
3.389759225E0,-4.953846335E-3,1.192736626E-2,-2.486124039E-1
3.399799466E0,2.417676896E-2,-3.041696548E-2,-1.369838715E-1
3.409839706E0,6.346441805E-3,-5.504715443E-2,3.701686859E-2
3.419879946E0,-2.857036889E-3,-6.255292892E-2,1.440267563E-1
3.429920186E0,-4.426024854E-2,-2.781295776E-2,2.245960236E-1
3.439960427E0,-2.346196026E-2,2.468943596E-2,2.403554916E-1
3.450000667E0,1.100894064E-2,3.651332855E-2,1.791982651E-1
3.460040907E0,5.445510149E-3,5.677890778E-2,1.011447906E-1
3.470111665E0,1.775436103E-2,5.914211273E-2,3.012180328E-2
3.480151906E0,-3.386065364E-4,7.260143757E-2,9.259223938E-3
3.490192146E0,3.530360758E-3,3.602147102E-2,5.185127258E-3
3.500232386E0,-9.360164404E-4,1.902830601E-2,-1.220703125E-3
3.510272627E0,2.858778089E-2,2.895617485E-2,-3.386688232E-2
3.520312867E0,4.451212287E-2,1.352596283E-2,-4.242515564E-2
3.530353107E0,7.494609058E-2,3.704428673E-3,-2.931785583E-2
3.540393347E0,4.860788956E-2,-1.017451286E-2,-6.524085999E-3
3.550433588E0,9.376998991E-2,-1.408445835E-2,4.742622375E-2
3.560504346E0,6.306086481E-2,1.733696461E-2,1.132898331E-1
3.570544586E0,6.319158524E-2,2.931404114E-2,9.293365479E-2
3.580584827E0,4.688229039E-2,6.174480915E-2,6.287956238E-2
3.590625067E0,3.138868883E-2,6.776118279E-2,1.607608795E-2
3.600665307E0,3.493128717E-2,6.205976009E-2,5.227088928E-3
3.610705547E0,7.538293302E-2,5.404996872E-2,-4.631137848E-2
3.620745787E0,4.564032704E-2,4.469633102E-2,-1.216459274E-1
3.630786029E0,2.671175078E-2,2.434527874E-2,-1.369915009E-1
3.640856786E0,8.941799402E-3,-2.782523632E-2,-8.747959137E-2
3.650897027E0,2.030621469E-2,-3.108000755E-2,5.553245544E-2
3.660937267E0,2.704566717E-2,1.970529556E-3,1.650762558E-1
3.670977507E0,1.840911806E-2,4.583287239E-2,2.098388672E-1
3.681017747E0,1.424509287E-2,6.872940063E-2,1.825704575E-1
3.691057987E0,7.241897285E-3,9.154570103E-2,1.763067245E-1
3.701098228E0,-2.068448812E-2,9.564137459E-2,6.476974487E-2
3.711138469E0,-3.004941344E-2,5.251181126E-2,-8.499145508E-2
3.721178709E0,-6.501056254E-3,3.584992886E-2,-1.964206696E-1
3.731249467E0,3.093514591E-2,-2.254259586E-2,-1.616487503E-1
3.741289707E0,6.368061900E-2,-4.017806053E-2,7.690525055E-2
3.751329947E0,7.747775316E-2,-6.760728359E-2,2.390823364E-1
3.761370187E0,4.134112969E-2,-8.627390862E-2,1.976728439E-1
3.771410428E0,1.711241156E-2,-9.975385666E-2,6.508064270E-2
3.781450668E0,4.534468055E-3,-6.205821037E-2,-1.227293015E-1
3.791490909E0,-3.329835832E-3,-2.951335907E-2,-2.961988449E-1
3.801531149E0,3.738189116E-2,2.331918478E-2,-3.713741302E-1
3.811601907E0,5.772954226E-2,3.790992498E-2,-2.547502518E-1
3.821642147E0,9.113421291E-2,5.772721767E-2,4.652595520E-2
3.831682387E0,7.888184488E-2,2.667170763E-2,3.767127991E-1
3.841722628E0,3.180659562E-2,5.834835768E-2,5.558643341E-1
3.851762868E0,1.631481200E-2,5.474686623E-2,5.478420258E-1
3.861803108E0,-2.542659640E-4,5.564045906E-2,3.693370819E-1
3.871843348E0,-2.637617290E-3,6.894415617E-2,1.425514221E-1
3.881883589E0,-6.425850093E-3,7.266092300E-2,-1.035718918E-1
3.891954347E0,-4.311315715E-3,8.097505569E-2,-2.586812973E-1
3.901994587E0,8.025124669E-3,7.928919792E-2,-3.249797821E-1
3.912034828E0,1.537114382E-3,5.894881487E-2,-3.021945953E-1
3.922075068E0,2.833481133E-2,6.381201744E-2,-1.952810287E-1
3.932115308E0,4.046323523E-2,2.407711744E-2,-9.765338898E-2
3.942155548E0,5.255194008E-2,2.486896515E-2,2.410793304E-2
3.952195788E0,3.831932321E-2,1.672494411E-2,7.170772552E-2
3.962236030E0,5.070094019E-2,3.003156185E-2,9.296417236E-2
3.972306787E0,3.424035758E-2,5.616831779E-2,1.787357330E-1
3.982347028E0,1.103160530E-2,2.886849642E-2,2.452964783E-1
3.992387268E0,-3.618410975E-2,2.045291662E-2,3.140325546E-1
4.002427508E0,-4.751266539E-2,7.261633873E-3,1.862554550E-1
4.012467748E0,7.683984935E-3,-2.494114637E-2,-5.901050568E-2
4.022507988E0,6.249944866E-2,-4.108798504E-2,-2.707996368E-1
4.032548229E0,8.350246400E-2,-1.996451616E-2,-3.340253830E-1
4.042588470E0,8.286330104E-2,6.560385227E-3,-2.270183563E-1
4.052659228E0,3.201150522E-2,3.394740820E-2,-1.029939651E-1
4.062699468E0,3.648705035E-2,3.065693378E-2,3.082942963E-2
4.072739708E0,5.119480938E-2,2.419781685E-2,1.552038193E-1
4.082779948E0,6.608723104E-2,4.383468628E-2,2.268896103E-1
4.092820188E0,6.415744126E-2,1.150345802E-2,2.242279053E-1
4.102860429E0,4.719568416E-2,7.973253727E-3,1.854763031E-1
4.112900669E0,3.958081082E-2,1.671338081E-2,9.389877319E-2
4.122940910E0,1.314746588E-2,2.877807617E-2,4.771423340E-2
4.133011668E0,2.288776636E-2,9.483456612E-3,-5.659103394E-3
4.143051908E0,2.581435069E-2,1.188153028E-2,-4.703712463E-2
4.153092148E0,3.589866310E-2,-1.140713692E-2,-5.244827271E-2
4.163132388E0,1.948605478E-2,1.953959465E-3,-2.325792313E-1
4.173172629E0,6.906899810E-2,3.957003355E-2,-8.707809448E-2
4.183212869E0,6.615437567E-3,5.578535795E-2,-5.169105530E-2
4.193253109E0,2.785357833E-2,5.821251869E-2,-5.217266083E-2
4.203293350E0,-2.399124205E-2,4.710030556E-2,7.191467285E-2
4.213364108E0,-4.351824522E-3,2.928495407E-2,6.195735931E-2
4.223404348E0,1.734606922E-2,8.977472782E-3,1.549453735E-1
4.233444588E0,-1.592369378E-2,9.318888187E-3,4.437351227E-2
4.243484829E0,4.800766334E-2,-1.071411371E-2,5.103778839E-2
4.253525069E0,1.457359642E-2,-1.134872437E-4,-2.172470093E-3
4.263565309E0,5.450736731E-2,-6.007969379E-3,6.884574890E-3
4.273605549E0,6.844677031E-3,2.200251818E-2,-7.961273193E-3
4.283645790E0,1.877628267E-2,3.374332190E-2,2.032184601E-2
4.293686031E0,8.133248985E-2,6.336086988E-2,4.133510590E-2
4.303756788E0,9.570869803E-2,5.948644876E-2,2.165412903E-2
4.313797029E0,5.529135466E-2,4.488229752E-2,-3.862762451E-2
4.323837269E0,3.696285561E-2,2.892404795E-2,-9.883975983E-2
4.333877509E0,1.603183150E-2,2.109044790E-2,-9.674835205E-2
4.343917749E0,9.122215211E-3,7.140994072E-3,-4.671192169E-2
4.353957989E0,9.577870369E-3,-8.233785629E-3,3.211116791E-2
4.363998231E0,1.766736805E-2,-1.114273071E-2,1.181497574E-1
4.374068988E0,-2.263985574E-3,-2.869892120E-2,2.065725327E-1
4.384109229E0,-7.728561759E-4,-2.321112156E-2,1.776323318E-1
4.394149469E0,-2.387575805E-3,-1.717925072E-2,1.246452332E-1
4.404189709E0,1.638595760E-2,1.155376434E-3,4.281234741E-2
4.414229949E0,2.753808722E-2,3.068971634E-2,-4.863452911E-2
4.424270189E0,2.873155475E-2,5.109700561E-2,-1.424484253E-1
4.434310430E0,3.692261875E-2,2.962234616E-2,-2.026767731E-1
4.444350671E0,6.199624017E-2,1.245260239E-2,-1.263332367E-1
4.454390911E0,1.058535576E-1,6.845653057E-3,4.587650299E-2
4.464461669E0,3.893865272E-2,1.911428571E-2,1.535129547E-1
4.474501909E0,-1.147491485E-2,-7.657229900E-3,1.126708984E-1
4.484542149E0,-1.557390392E-2,-4.669487476E-3,-4.844665527E-3
4.494582389E0,1.692207903E-2,2.218490839E-2,-1.295394897E-1
4.504622630E0,2.062295377E-2,4.264476895E-2,-2.374334335E-1
4.514662870E0,6.851844490E-3,8.847069740E-2,-2.135848999E-1
4.524703110E0,7.175158709E-2,9.230655432E-2,-2.940845490E-2
4.534743351E0,1.007687151E-1,4.801389575E-2,2.364063263E-1
4.544814109E0,7.883860171E-2,2.951267362E-2,3.848752975E-1
4.554854349E0,2.312907204E-2,1.545846462E-3,4.183111191E-1
4.564894589E0,-1.523539424E-2,-1.559236646E-2,2.935686111E-1
4.574934830E0,-4.817001522E-2,-8.887708187E-3,1.518507004E-1
4.584975070E0,-4.084324837E-2,2.006882429E-2,-1.907348633E-3
4.595015310E0,-7.703937590E-3,4.870840907E-2,-7.187271118E-2
4.605055550E0,3.203292191E-2,6.437096000E-2,-1.106443405E-1
4.615126308E0,4.437357560E-2,6.706935167E-2,-1.062602997E-1
4.625166549E0,2.122857422E-2,5.122765899E-2,-9.695243835E-2
4.635206789E0,3.030968457E-2,2.420449257E-2,-3.243827820E-2
4.645247030E0,3.416165709E-4,2.404946089E-2,3.699684143E-2
4.655287270E0,-8.815258741E-3,3.459522128E-2,8.504009247E-2
4.665327510E0,-1.090560853E-2,4.941773415E-2,1.331605911E-1
4.675398268E0,-1.570935547E-2,7.772400975E-2,1.550102234E-1
4.685438508E0,1.285042614E-2,8.638942242E-2,1.865205765E-1
4.695478748E0,8.313283324E-3,8.282786608E-2,1.319465637E-1
4.705518989E0,2.564097196E-2,6.734895706E-2,-3.981876373E-2
4.715589747E0,1.210517436E-2,1.461613178E-2,-1.922464371E-1
4.725629987E0,5.103874952E-2,-6.131678820E-3,-4.618024826E-1
4.735670228E0,8.739797026E-2,-2.737486362E-2,-6.232395172E-1
4.745710468E0,5.895732343E-2,-5.063396692E-2,-6.239070892E-1
4.755750708E0,6.312952936E-2,-5.433833599E-2,-3.608160019E-1
4.765790948E0,5.154995620E-2,-8.347582817E-2,2.950000763E-2
4.775831188E0,2.589646727E-2,-1.144731641E-1,2.715559006E-1
4.785901946E0,-6.018750370E-3,-1.180160046E-1,3.435182571E-1
4.795942187E0,1.229650527E-2,-1.149113774E-1,3.170642853E-1
4.805982428E0,2.719676495E-2,-9.121757746E-2,2.711315155E-1
4.816022668E0,3.184600174E-2,-7.944649458E-2,2.514133453E-1
4.826062908E0,2.578302473E-2,-6.335586309E-2,1.882419586E-1
4.836133666E0,2.387992293E-2,-3.910475969E-2,1.365795135E-1
4.846173906E0,2.706522495E-2,-6.991088390E-3,8.479213715E-2
4.856214146E0,4.307758808E-2,1.271718740E-2,1.862049103E-2
4.866254386E0,4.288769886E-2,6.609928608E-2,-6.972599030E-2
4.876294628E0,2.005452663E-2,8.627641201E-2,-8.159923553E-2
4.886334868E0,3.319987655E-2,8.954197168E-2,-2.188587189E-2
4.896375108E0,2.198916674E-2,8.237427473E-2,7.820129395E-5
4.906445866E0,4.413671046E-2,7.112407684E-2,2.226543427E-2
4.916486106E0,2.767688781E-2,7.220304012E-2,2.077579498E-2
4.926526346E0,-1.342932135E-2,5.236643553E-2,-2.785396576E-2
4.936566586E0,-3.286192566E-2,2.418696880E-2,-1.865673065E-2
4.946606827E0,-4.438410699E-2,4.949092865E-3,2.188968658E-2
4.956647068E0,-6.600683928E-2,-3.181660175E-2,5.783557892E-2
4.966717826E0,-6.365406513E-2,-3.024631739E-2,3.160190582E-2
4.976758066E0,-2.543237060E-2,-5.528801680E-2,-1.374626160E-2
4.986798306E0,-1.269274950E-2,-8.596456051E-2,-3.252124786E-2
4.996838546E0,-2.744524926E-2,-1.151177883E-1,2.796077728E-2
5.006878786E0,-2.776380628E-2,-1.365125179E-1,5.986213684E-2
5.016949544E0,-1.182438433E-2,-1.460167170E-1,7.028770447E-2
5.026989784E0,-1.008198410E-2,-1.395081282E-1,1.607036591E-2
5.037030025E0,2.199415118E-2,-1.182603836E-1,-7.901477814E-2
5.047100782E0,1.809351146E-2,-9.024643898E-2,-1.049394608E-1
5.057141024E0,9.816288948E-3,-9.967052937E-2,-4.722213745E-2
5.067181264E0,6.544589996E-4,-9.298753738E-2,7.270240784E-2
5.087243146E0,3.451881558E-2,-3.375697136E-2,1.568260193E-1
5.097283379E0,7.501421869E-2,-2.700877190E-2,8.027076721E-2
5.107323613E0,7.296621799E-2,2.569317818E-3,1.797389984E-2
5.117363845E0,7.453702390E-3,-8.832216263E-4,-7.294178009E-2
5.127434596E0,-3.573124111E-2,-6.183385849E-2,-7.969188690E-2
5.137474829E0,-2.911191434E-2,-7.911252975E-2,-1.171112061E-1
5.147515062E0,-9.292639792E-3,-1.012936831E-1,-1.230354309E-1
5.157555294E0,-2.014057338E-2,-1.103502512E-1,-3.534030914E-2
5.167626045E0,-2.296385914E-2,-1.363410950E-1,1.430368423E-1
5.177666278E0,-6.875050068E-2,-1.028790474E-1,1.797971725E-1
5.187706511E0,5.976722389E-2,-1.249023676E-1,1.634988785E-1
5.197746744E0,-1.593049616E-2,-9.850943089E-2,8.469104767E-2
5.207817494E0,5.570067465E-2,-1.024746895E-1,8.306503296E-4
5.217857728E0,6.188519299E-3,-6.735849380E-2,-6.172847748E-2
5.227897961E0,5.211155489E-2,-1.048028469E-2,-1.984558105E-1
5.237938193E0,5.922061577E-2,4.347109795E-2,-1.169710159E-1
5.248008944E0,3.966119885E-2,1.012653112E-1,-5.435657501E-2
5.258049177E0,6.930410117E-2,9.744429588E-2,2.458267212E-1
5.268089409E0,4.857712239E-2,1.290556192E-1,2.610626221E-1
5.278129642E0,5.868017673E-3,1.006424427E-1,2.375936508E-1
5.288200393E0,2.458778024E-2,8.353018761E-2,1.441946030E-1
5.298240626E0,5.402935296E-2,6.588864326E-2,5.987930298E-2
5.308280858E0,5.892983451E-2,7.504594326E-2,-6.742000580E-2
5.318321092E0,4.317295179E-2,8.040213585E-2,-1.394596100E-1
5.328361325E0,5.617624521E-2,6.041193008E-2,-1.203260422E-1
5.338432076E0,6.111361086E-3,1.547420025E-2,-4.826641083E-2
5.348472308E0,-1.157075167E-2,-9.638428688E-3,3.110885620E-2
5.358512541E0,-2.961882204E-2,-2.022933960E-2,1.344766617E-1
5.368552774E0,-3.958456218E-2,-4.805850983E-2,1.252670288E-1
5.378593007E0,-1.070877910E-2,-6.181061268E-2,2.026462555E-2
5.388633240E0,-1.899192482E-2,-9.399104118E-2,-3.428745270E-2
5.398673473E0,-1.772491634E-2,-1.015508175E-1,-4.319667816E-2
5.408744224E0,3.872238845E-2,-9.064102173E-2,-4.347801208E-3
5.418784457E0,4.443140328E-2,-7.797062397E-2,2.243328094E-2
5.428824689E0,2.838573605E-2,-5.251014233E-2,7.048130035E-2
5.438864922E0,2.374934405E-2,-2.825737000E-2,1.278877258E-1
5.448905155E0,2.283626795E-2,3.991603851E-3,1.227445602E-1
5.458975906E0,3.735754266E-2,-1.150488853E-3,4.309463501E-2
5.469016138E0,2.088014036E-2,-2.221643925E-2,-5.121517181E-2
5.479056372E0,3.118956089E-2,-5.657601357E-2,-1.141767502E-1
5.489096605E0,2.104464173E-2,-6.102967262E-2,-3.802299500E-2
5.499167356E0,2.823279053E-2,-4.984116554E-2,8.867931366E-2
5.509207588E0,5.669860542E-2,1.419889927E-2,1.436023712E-1
5.519247821E0,4.963592067E-2,3.776419163E-2,5.733108521E-2
5.529288054E0,3.094552830E-2,4.893505573E-2,4.511833191E-3
5.539328287E0,4.600733146E-2,2.811765671E-2,-9.674072266E-3
5.549399037E0,1.458122954E-2,1.379954815E-2,4.615783691E-4
5.559439270E0,1.024278998E-2,-3.335797787E-2,9.695720673E-2
5.569479504E0,1.365683973E-3,-5.710077286E-2,1.095714569E-1
5.579519737E0,-1.493528485E-2,-4.858064651E-2,1.003961563E-1
5.589559969E0,3.452772647E-2,-3.439426422E-2,2.626609802E-2
5.599630720E0,3.218352795E-4,-5.422091484E-2,-4.077053070E-2
5.609670953E0,4.591658711E-3,-3.452420235E-2,-3.861331940E-2
5.619711186E0,1.482031867E-2,-2.537488937E-3,-7.637977600E-3
5.629781936E0,2.018816769E-3,8.978366852E-3,1.401329041E-2
5.639822169E0,-6.660319865E-3,8.730173111E-3,5.726718903E-2
5.649862402E0,1.265937835E-2,-8.529424667E-3,8.610916138E-2
5.659902636E0,3.143547848E-2,-2.398467064E-2,8.370780945E-2
5.669973385E0,3.020537272E-2,-2.499341965E-3,8.101177216E-2
5.680013619E0,3.316221386E-2,-1.032590866E-2,2.552032471E-2
5.690053852E0,2.912299708E-2,2.191758156E-2,-4.686164856E-2
5.700094084E0,-3.389002755E-2,2.553749084E-2,-1.625633240E-2
5.710134317E0,-2.065726370E-2,2.519273758E-2,5.524158478E-2
5.720205068E0,-1.946583390E-3,3.202581406E-2,1.028108597E-1
5.730245301E0,4.774131998E-2,3.571820259E-2,6.163311005E-2
5.740285533E0,6.534649432E-2,5.062985420E-2,1.070880890E-2
5.750325767E0,4.827414826E-2,8.980131149E-2,2.395343781E-2
5.760366000E0,1.943712309E-2,5.621051788E-2,1.045761108E-1
5.770406233E0,-1.285222545E-2,3.554725647E-2,1.160001755E-1
5.780476983E0,-1.271701977E-2,-5.841016769E-3,3.129959106E-3
5.790517216E0,-1.122318208E-3,-2.059721947E-2,-1.096515656E-1
5.800557449E0,1.642253250E-3,-6.420850754E-2,-4.711437225E-2
5.810597682E0,2.563731372E-2,-8.547520638E-2,1.425161362E-1
5.820637915E0,2.977947146E-2,-4.518198967E-2,2.290468216E-1
5.830678148E0,1.333632693E-2,-1.173090935E-2,1.570787430E-1
5.840748899E0,1.088209823E-2,-1.370668411E-2,2.241516113E-2
5.850789132E0,3.235471249E-2,-1.673221588E-2,-9.573364258E-2
5.860829364E0,2.199853584E-2,-2.680349350E-2,-1.707544327E-1
5.870869597E0,1.535349339E-2,-5.759263039E-2,-1.330499649E-1
5.880909830E0,9.276401252E-3,-2.149939537E-2,-1.099777222E-2
5.890980581E0,4.324276373E-2,4.212856293E-4,1.159105301E-1
5.901020813E0,5.518471450E-2,1.954507828E-2,1.709175110E-1
5.911061047E0,4.479080439E-3,4.185175896E-2,1.585025787E-1
5.921101280E0,-2.325320989E-2,1.873373985E-2,1.359395981E-1
5.931141513E0,-2.006791532E-3,2.778053284E-3,5.111885071E-2
5.941181745E0,-1.862794161E-3,2.031874657E-2,5.249023438E-2
5.951252496E0,1.151009649E-2,3.094434738E-3,5.655097961E-2
5.961292729E0,1.406589895E-2,1.042175293E-2,8.711242676E-2
5.971332962E0,1.605825871E-2,2.193713188E-2,7.443046570E-2
5.981373195E0,2.890179679E-2,4.240441322E-2,-1.262950897E-2
5.991413428E0,-3.281783313E-2,-2.791690826E-2,2.246379852E-2
6.001453661E0,-1.618882269E-2,-5.386495590E-2,4.167556763E-4
6.011524412E0,-5.600087345E-3,-5.762076378E-2,1.924896240E-2
6.021564644E0,4.244118929E-3,-4.920673370E-2,2.378463745E-2
6.031604877E0,1.460345834E-2,-4.373168945E-2,6.171512604E-2
6.041645110E0,6.050907075E-2,-7.188081741E-3,9.182548523E-2
6.051685344E0,9.109543264E-2,3.799223900E-2,9.233188629E-2
6.061725576E0,6.981065869E-2,5.568957329E-2,1.571969986E-1
6.071796327E0,1.982981339E-2,4.359984398E-2,2.002458572E-1
6.081836560E0,-6.716541946E-3,2.149438858E-2,1.043167114E-1
6.091876793E0,7.180813700E-3,3.542661667E-3,-5.881118774E-2
6.101917025E0,4.416501150E-2,-9.059906006E-3,-1.667184830E-1
6.111957258E0,7.448703051E-2,9.046554565E-3,-9.932804108E-2
6.121997492E0,5.072404444E-2,3.720879555E-2,-7.256507874E-3
6.132037725E0,1.281076670E-2,4.620218277E-2,7.761573792E-2
6.142108475E0,2.255554870E-2,1.601552963E-2,7.126903534E-2
6.152148708E0,2.237480506E-2,2.467727661E-2,5.008220673E-2
6.162188941E0,3.329455853E-3,3.098821640E-2,1.552038193E-1
6.172229174E0,-3.333434463E-3,5.268597603E-2,-4.646301270E-2
6.182269406E0,8.970165998E-2,4.549813271E-2,5.288600922E-2
6.192309640E0,9.921804070E-3,3.922462463E-2,7.763671875E-2
6.202380390E0,7.028071582E-2,-1.270556450E-2,1.232643127E-1
6.212420624E0,-1.250403374E-2,-3.293967247E-2,7.746601105E-2
6.222460856E0,3.935283050E-2,-6.341648102E-2,-5.228042603E-2
6.232501089E0,-2.932955325E-2,-3.008484840E-2,-9.825706482E-3
6.242541322E0,-3.984749317E-2,-1.545214653E-2,6.425857544E-3
6.252581555E0,-4.984819144E-2,-1.238369942E-2,1.185655594E-1
6.262652305E0,2.594882995E-2,-7.309913635E-3,1.037273407E-1
6.272692538E0,5.555038899E-2,-3.426074982E-3,8.382225037E-2
6.282732772E0,3.854100034E-2,4.157543182E-3,-6.083679199E-2
6.292773005E0,7.248096168E-3,-2.366042137E-2,-2.578449249E-2
6.302813237E0,2.608925849E-2,-2.928185463E-2,-1.928806305E-2
6.312853470E0,2.674365044E-2,-2.069091797E-2,5.662822723E-2
6.322924221E0,-8.318915963E-3,-1.005244255E-2,8.938789368E-2
6.332964454E0,-3.373458982E-3,-1.193666458E-2,7.110595703E-3
6.343004686E0,-4.166638106E-2,2.609515190E-2,-2.744674683E-2
6.353044920E0,3.220677376E-3,5.198025703E-2,-6.958961487E-3
6.363085153E0,8.499704301E-3,3.136157990E-2,7.373428345E-2
6.373155904E0,9.892031550E-3,2.584218979E-2,9.476852417E-2
6.383196136E0,1.130776107E-2,1.593565941E-2,5.605506897E-2
6.393236369E0,7.434591651E-3,9.032249451E-3,-4.053115845E-3
6.403276602E0,-2.057615668E-2,-1.922369003E-3,-2.806949615E-2
6.413316835E0,-4.275339097E-2,-2.093386650E-2,-9.003067017E-2
6.423357068E0,5.454152822E-3,-2.491784096E-2,-7.999992371E-2
6.433427818E0,1.686341316E-2,-6.148219109E-2,-3.061294556E-4
6.443468052E0,4.046003148E-2,-6.447386742E-2,1.871490479E-1
6.453508285E0,3.997043148E-2,-8.654761314E-2,2.232189178E-1
6.463548517E0,-1.434612274E-2,-7.568216324E-2,2.203073502E-1
6.473588750E0,5.210265517E-3,-3.778433800E-2,9.254741669E-2
6.483628983E0,5.539656430E-2,-2.014636993E-4,-1.310081482E-1
6.493699734E0,5.225226656E-2,1.791596413E-2,-2.846479416E-1
6.503739966E0,1.095718890E-2,3.452754021E-2,-2.651844025E-1
6.513780200E0,2.029598877E-2,2.070641518E-2,-5.112171173E-2
6.523820433E0,3.088127822E-2,3.227686882E-2,2.063589096E-1
6.533860666E0,2.812127769E-2,4.765486717E-2,3.530063629E-1
6.543931416E0,1.993650943E-2,6.543874741E-2,3.406343460E-1
6.553971649E0,2.210496366E-2,5.711948872E-2,2.195816040E-1
6.564011882E0,2.244684473E-2,8.575260639E-2,8.101940155E-2
6.574052115E0,2.527254075E-2,6.630766392E-2,-4.507255554E-2
6.584122865E0,4.121613130E-2,6.393885612E-2,-7.958984375E-2
6.594163098E0,4.407045618E-2,5.318140984E-2,-3.194713593E-2
6.604203332E0,5.176096037E-2,4.699897766E-2,5.206108093E-2
6.614243565E0,1.379552484E-2,4.942262173E-2,6.932353973E-2
6.624283797E0,6.189547479E-3,2.727556229E-2,4.337120056E-2
6.634354548E0,1.460368931E-2,-5.506277084E-4,1.485633850E-2
6.644394781E0,3.436331078E-2,-4.295492172E-2,-2.566242218E-2
6.654435013E0,3.105743602E-2,-5.372488499E-2,-1.578521729E-2
6.664475246E0,2.733910829E-2,-4.264736176E-2,4.924488068E-2
6.674545997E0,2.198714763E-2,-3.130078316E-2,1.263151169E-1
6.684586230E0,1.361923665E-2,-1.799392700E-2,1.338787079E-1
6.694626463E0,1.758591831E-2,-3.122091293E-3,1.484622955E-1
6.704666696E0,-1.009535789E-2,-3.950595856E-4,1.558418274E-1
6.714706929E0,-1.384932548E-2,-9.476065636E-3,1.489009857E-1
6.724777680E0,-1.158804446E-2,1.254868507E-2,-1.364135742E-2
6.734817912E0,-4.542611539E-3,5.216729641E-2,-1.855754852E-1
6.744858145E0,1.210802794E-2,8.874046803E-2,-2.422370911E-1
6.754898378E0,1.216293126E-2,7.739007473E-2,-1.667776108E-1
6.764938612E0,2.210810781E-2,3.940629959E-2,4.551982880E-2
6.775009361E0,-1.253204048E-2,-1.687133312E-2,1.166820526E-1
6.785049595E0,8.446723223E-5,-5.549693108E-2,1.253194809E-1
6.795089828E0,-1.082852483E-3,-7.211542130E-2,7.136726379E-2
6.805130061E0,-2.253465354E-2,-7.086217403E-2,7.705879211E-2
6.815170293E0,-9.966969490E-3,-2.068519592E-2,1.184329987E-1
6.825241044E0,1.220827550E-2,2.368652821E-2,1.404848099E-1
6.835281277E0,-8.694246411E-3,3.823328018E-2,1.336250305E-1
6.845321510E0,-2.943664789E-2,4.944455624E-2,8.591651917E-2
6.855361743E0,-3.841818124E-2,5.078077316E-2,3.577899933E-2
6.865432493E0,1.200702041E-2,4.777574539E-2,9.632110596E-5
6.875472727E0,3.121886775E-2,5.043756962E-2,-1.387310028E-2
6.885512960E0,3.795814887E-2,6.733071804E-2,8.754730225E-4
6.895553192E0,4.406826571E-2,7.476830482E-2,1.804733276E-2
6.905593425E0,3.807269037E-2,4.505121708E-2,2.345466614E-2
6.915664176E0,4.116311297E-2,4.600405693E-2,5.752372742E-2
6.925704408E0,3.224543110E-2,3.747272491E-2,4.134368896E-2
6.935744641E0,3.485093266E-2,2.886354923E-2,5.867862701E-2
6.945784875E0,4.193893448E-2,2.983176708E-2,4.250526428E-2
6.955855625E0,2.135439217E-2,1.485383511E-2,1.212024689E-2
6.965895858E0,2.072624117E-2,5.047440529E-3,1.054286957E-2
6.975936091E0,1.114866138E-2,1.222741604E-2,4.971981049E-2
6.985976324E0,2.820119262E-2,-1.770615578E-3,8.178329468E-2
6.996047075E0,1.918596402E-2,1.501917839E-2,4.676723480E-2
7.006087307E0,2.907348424E-2,-2.230525017E-3,6.890296936E-3
7.016127540E0,4.697661102E-2,-7.881999016E-3,-1.628780365E-2
7.026167773E0,4.274756461E-2,8.037090302E-4,-5.382633209E-2
7.036238524E0,2.241028473E-2,7.481336594E-3,-4.340648651E-2
7.046278756E0,-1.621492207E-3,2.392327785E-2,5.564689636E-2
7.056318989E0,2.696479857E-2,1.386010647E-2,1.546850204E-1
7.066359223E0,2.166092768E-2,2.875912189E-2,1.649398804E-1
7.076429972E0,1.817149669E-2,4.574775696E-3,7.932090759E-2
7.086470206E0,9.392425418E-3,3.388142586E-2,-1.369857788E-2
7.096510439E0,-3.562539816E-3,4.846727848E-2,3.388404846E-3
7.106550672E0,-1.239351928E-2,4.305505753E-2,2.551937103E-2
7.116621422E0,1.036903262E-2,6.497716904E-2,-5.274391174E-2
7.126661655E0,2.191404626E-2,2.895677090E-2,-6.367969513E-2
7.136701888E0,2.586115152E-2,-2.193403244E-2,6.452083588E-2
7.146742121E0,3.792222962E-2,-9.903788567E-3,1.688690186E-1
7.156812871E0,2.940873429E-2,-1.763963699E-2,1.558094025E-1
7.166853104E0,3.201097995E-2,-1.789689064E-2,1.078033447E-2
7.176893338E0,3.509648144E-3,-5.101561546E-2,4.508876801E-2
7.186933571E0,-9.941957891E-3,-1.532089710E-2,-1.457214355E-1
7.197004321E0,4.225844145E-2,-1.451861858E-2,-2.022972107E-1
7.207044554E0,4.337780178E-3,3.122174740E-2,-2.562141418E-1
7.217084787E0,4.077154025E-2,2.885627747E-2,-2.253055573E-2
7.227125020E0,-9.303554893E-3,3.514444828E-2,1.993808746E-1
7.237195770E0,5.038408190E-2,2.866053581E-2,3.373908997E-1
7.247236003E0,4.434078932E-3,2.644741535E-2,3.265819550E-1
7.257276236E0,4.161794484E-2,6.156361103E-2,1.046533585E-1
7.267346986E0,1.088366657E-2,7.018542290E-2,5.479335785E-2
7.277387219E0,7.061757147E-3,5.848073959E-2,-6.910514832E-2
7.287427453E0,-7.062219083E-4,5.862295628E-2,-7.537841797E-2
7.297467686E0,2.340182662E-2,5.593788624E-2,-3.350639343E-2
7.307507919E0,1.443267241E-2,2.192330360E-2,-1.050662994E-2
7.317578669E0,1.247916743E-2,3.646814823E-2,1.497554779E-2
7.327618902E0,3.528721631E-3,2.984130383E-2,3.332710266E-2
7.337659135E0,1.835405827E-2,2.075731754E-2,5.406761169E-2
7.347699367E0,1.323309913E-2,8.285641670E-3,1.244068146E-2
7.357770118E0,8.660554886E-4,1.933324337E-2,3.062343597E-2
7.367810351E0,1.495569199E-2,1.846277714E-2,1.290607452E-2
7.377850585E0,3.353795409E-2,3.659963608E-3,4.791831970E-2
7.387890817E0,4.004967958E-2,3.283381462E-3,6.139564514E-2
7.397931050E0,3.242402524E-2,3.022909164E-3,1.275644302E-1
7.408001801E0,4.521776736E-2,1.420712471E-2,1.314239502E-1
7.418042034E0,2.182574198E-2,1.774859428E-2,2.510261536E-2
7.428082266E0,-1.013562083E-3,8.695721626E-3,-9.564399719E-2
7.438122499E0,3.405920416E-2,3.381025791E-2,-9.659576416E-2
7.448162733E0,2.673647739E-2,5.493545532E-2,-1.604557037E-2
7.458233483E0,2.189315110E-2,5.980062485E-2,7.653903961E-2
7.468273716E0,-4.738915712E-3,5.052709579E-2,1.188735962E-1
7.478313949E0,1.818453521E-2,1.948010921E-2,1.013288498E-1
7.488354182E0,3.632685542E-2,-9.743809700E-3,4.063129425E-2
7.498394415E0,6.618265808E-2,-1.303792000E-2,2.777957916E-2
7.508465165E0,3.586840630E-2,9.809255600E-3,5.562686920E-2
7.518505398E0,4.336471856E-2,2.781045437E-2,1.164627075E-2
7.528545631E0,7.739905268E-3,4.308080673E-2,3.227996826E-2
7.538585865E0,4.978351295E-3,5.769085884E-2,9.115791321E-2
7.548626097E0,-2.619192004E-3,4.370784760E-2,9.499073029E-2
7.558666330E0,1.844613254E-2,2.734148502E-2,5.095005035E-2
7.568737081E0,1.828651875E-2,-3.738582134E-3,9.277343750E-3
7.578777314E0,1.566128433E-2,1.515161991E-2,-1.086807251E-2
7.588817546E0,1.243203878E-3,1.243954897E-2,7.298469543E-3
7.598857779E0,1.079124212E-2,1.242160797E-4,3.983879089E-2
7.608898013E0,5.780242383E-3,-7.990062237E-3,6.514835358E-2
7.618938246E0,-7.122710347E-3,-9.396612644E-3,9.281444550E-2
7.629008996E0,1.231748611E-3,7.556617260E-3,7.732009888E-2
7.639049229E0,9.701520205E-3,4.046583176E-2,4.740142822E-2
7.649089462E0,9.207412601E-3,4.018396139E-2,2.710914612E-2
7.659129695E0,1.405414194E-2,4.302030802E-2,1.408290863E-2
7.669169927E0,3.356720135E-2,4.005551338E-2,1.556110382E-2
7.679210161E0,2.924466133E-2,4.061144590E-2,1.954555511E-2
7.689280911E0,8.148930967E-3,3.685295582E-2,3.794384003E-2
7.699321145E0,8.131004870E-3,1.665949821E-2,4.440689087E-2
7.709361377E0,2.412644401E-2,2.661484480E-2,6.515216827E-2
7.719401610E0,2.076631412E-2,9.455621243E-3,7.865715027E-2
7.729441843E0,1.069627702E-3,7.654488087E-3,1.159982681E-1
7.739512593E0,1.023842394E-2,-5.082309246E-3,1.053562164E-1
7.749552826E0,1.484575495E-2,7.445275784E-3,9.704113007E-2
7.759593059E0,3.453246877E-2,5.027532578E-3,8.870029449E-2
7.769633293E0,5.000573024E-2,1.956248283E-2,4.448699951E-2
7.779673526E0,3.043428436E-2,3.241020441E-2,9.929656982E-3
7.789713758E0,4.123538733E-3,1.985305548E-2,-1.256561279E-2
7.799784509E0,4.096638039E-2,2.942508459E-2,-6.852626801E-2
7.809824742E0,1.447263360E-2,3.723794222E-2,-9.330749512E-2
7.819864975E0,-1.370791346E-3,2.437895536E-2,-7.971096039E-2
7.829905207E0,-1.309847832E-2,3.572905064E-2,-1.445770264E-3
7.839945441E0,1.782141626E-3,1.384258270E-2,8.403491974E-2
7.849985674E0,1.294980943E-2,7.972717285E-4,2.077884674E-1
7.860056424E0,1.281787828E-2,1.511007547E-2,2.093582153E-1
7.870096657E0,1.936860383E-2,1.051533222E-2,1.461553574E-1
7.880136890E0,3.020615503E-2,-1.327395439E-4,4.218673706E-2
7.890177123E0,2.650245838E-2,2.216011286E-2,1.481914520E-2
7.900217356E0,3.551103920E-2,4.990923405E-2,4.281997681E-3
7.910288106E0,1.217131689E-2,6.446820498E-2,-3.249073029E-2
7.920328339E0,-4.228018224E-3,4.567515850E-2,-1.074008942E-1
7.930368573E0,-1.382077858E-2,3.831386566E-2,-1.103658676E-1
7.940408806E0,7.501758635E-3,2.806019783E-2,-1.265621185E-2
7.950449038E0,3.137637675E-2,5.462563038E-2,1.617250443E-1
7.960489271E0,-6.744533777E-3,1.446074247E-2,2.140254974E-1
7.970560022E0,-2.874067053E-2,-3.306090832E-3,1.728687286E-1
7.980600254E0,-3.644812852E-3,-3.635585308E-3,3.824901581E-2
7.990640487E0,3.821435943E-2,2.255678177E-3,-1.514787674E-1
8.000680721E0,1.460132748E-2,1.132112741E-2,-3.267803192E-1
8.010720954E0,2.499685995E-2,1.558214426E-2,-3.032312393E-1
8.020761187E0,4.474022239E-2,3.012537956E-2,-1.855278015E-2
8.030801419E0,2.822485939E-2,3.932452202E-2,3.212852478E-1
8.040872170E0,3.793342039E-2,4.488778114E-2,3.953056335E-1
8.050912403E0,3.291887790E-2,5.662861466E-2,2.512865067E-1
8.060952636E0,7.970143110E-3,3.366255760E-2,1.477985382E-1
8.070992869E0,2.299994044E-2,2.058550715E-2,1.375970840E-1
8.081033102E0,6.292540580E-2,3.128936887E-2,8.670711517E-2
8.091073335E0,1.787931658E-2,3.246223927E-2,2.323150635E-3
8.101144085E0,1.625849307E-2,4.878494143E-2,-6.285285950E-2
8.111184318E0,7.085468620E-3,6.611534953E-2,-1.112136841E-1
8.121224551E0,2.834616601E-2,5.636161566E-2,-1.283750534E-1
8.131264784E0,2.294849418E-2,6.030437350E-2,-1.143331528E-1
8.141305018E0,1.047766395E-2,5.442056060E-2,-6.428813934E-2
8.151375767E0,5.250032991E-3,1.700359583E-2,-2.191543579E-3
8.161416001E0,9.700235724E-2,1.203161478E-2,-8.848857880E-2
8.171456234E0,-1.535421982E-2,7.020026445E-3,5.027580261E-2
8.181496467E0,2.828880213E-2,1.364868879E-2,5.495452881E-2
8.191536699E0,1.483713835E-2,-3.796574473E-2,1.817102432E-1
8.201576932E0,3.134422004E-3,7.259666920E-3,1.312446594E-1
8.211647683E0,2.843748219E-2,2.677166462E-2,2.315473557E-1
8.221687915E0,2.470394969E-2,6.612566113E-2,8.040332794E-2
8.231728149E0,7.557105273E-2,3.803500533E-2,2.741336823E-2
8.241768382E0,1.106784865E-2,4.951563478E-2,-2.002973557E-1
8.251808615E0,7.392607629E-2,6.521412730E-2,-2.124614716E-1
8.261848848E0,2.214078978E-2,4.767397046E-2,-1.072177887E-1
8.271919598E0,1.799397543E-2,1.097956300E-2,2.683544159E-2
8.281959831E0,3.993708640E-2,-5.716830492E-3,1.202116013E-1
8.292000064E0,3.303039446E-2,-3.681361675E-3,1.154127121E-1
8.302040298E0,5.672966689E-2,1.170325279E-2,9.621429443E-2
8.312080530E0,3.533267230E-2,1.429364085E-2,6.262397766E-2
8.322120763E0,2.839514054E-2,4.705682397E-2,7.449626923E-2
8.332191514E0,1.839128882E-2,4.354467988E-2,3.128719330E-2
8.342231746E0,1.546014287E-2,3.737699986E-2,2.877235413E-2
8.352271979E0,2.713168599E-2,3.830388188E-2,5.498886108E-2
8.362312212E0,1.050711051E-2,5.544844270E-2,7.161331177E-2
8.372352446E0,4.589497298E-2,5.063021183E-2,2.837085724E-2
8.382392679E0,-4.024144262E-3,4.112768173E-2,2.344417572E-2
8.392463429E0,8.080625907E-3,2.204009891E-2,6.547927856E-3
8.402503662E0,8.240299299E-3,5.547970533E-3,-7.946014404E-3
8.412543895E0,8.342614397E-3,6.282746792E-3,-1.045513153E-2
8.422584128E0,1.742290705E-2,2.166959643E-2,1.409530640E-3
8.432624360E0,3.082665056E-2,2.523458004E-2,1.567363739E-2
8.442664594E0,2.762214094E-2,1.945325732E-2,7.064437866E-2
8.452735344E0,2.955729887E-2,2.546350658E-2,6.336498260E-2
8.462775577E0,1.758748107E-2,2.879886329E-2,3.213977814E-2
8.472815810E0,-3.598477691E-3,9.970963001E-4,3.443527222E-2
8.482856043E0,2.275995910E-2,-9.838059545E-3,2.237033844E-2
8.492896276E0,3.479441628E-2,-1.089684665E-2,2.707195282E-2
8.502936509E0,2.045357972E-2,2.877514064E-2,1.741027832E-2
8.513007259E0,1.125593483E-2,2.813802660E-2,1.973152161E-2
8.523047492E0,1.631337404E-2,2.532020211E-2,3.881835938E-2
8.533087726E0,1.646648720E-2,5.074575543E-2,3.873920441E-2
8.543127959E0,7.161116228E-3,3.806237876E-2,3.387832642E-2
8.553168191E0,1.430531032E-2,4.686039686E-2,3.619861603E-2
8.563208424E0,4.924606532E-3,2.535206079E-2,3.375148773E-2
8.573279175E0,8.477382362E-4,3.561392426E-2,5.286884308E-2
8.583319407E0,1.601436920E-2,4.402679205E-2,4.805660248E-2
8.593359640E0,2.390444651E-2,3.905293345E-2,6.960296631E-2
8.603399874E0,1.529130712E-2,2.359099686E-2,6.484794617E-2
8.613440107E0,1.625275984E-2,2.641880512E-2,8.885765076E-2
8.623480340E0,4.784704000E-2,3.563477099E-2,1.607885361E-1
8.633520572E0,1.273719035E-2,5.864195526E-2,1.513643265E-1
8.643591323E0,2.816013992E-2,6.228931248E-2,1.228437424E-1
8.653631556E0,2.093704417E-2,9.577071667E-2,1.542091370E-2
8.663671789E0,4.860836640E-2,8.860298991E-2,-1.493091583E-1
8.673712022E0,1.020941138E-2,6.655444205E-2,-2.947216034E-1
8.683752255E0,1.061642542E-2,2.289727330E-2,-3.417701721E-1
8.693792488E0,1.739139110E-2,-3.242030740E-2,-2.137937546E-1
8.703863238E0,5.355919525E-2,-3.643980622E-2,-1.286926270E-1
8.713903471E0,7.415401936E-2,-5.316659808E-2,-1.152334213E-1
8.723943704E0,1.450992376E-2,-4.942250252E-2,-1.158428192E-1
8.733983937E0,-5.572117865E-3,-5.513918400E-2,-1.476287842E-3
8.744024171E0,-5.473345518E-4,-1.070806384E-1,1.939983368E-1
8.754064403E0,3.240235522E-2,-1.170965433E-1,3.151340485E-1
8.764104636E0,3.174262121E-2,-1.056684256E-1,2.947902679E-1
8.774175387E0,7.510945201E-3,-8.432745934E-2,1.281795502E-1
8.784215619E0,2.244438231E-2,-3.258275986E-2,2.126502991E-2
8.794255852E0,2.864701673E-2,2.071404457E-2,-9.063720703E-3
8.804296085E0,2.849397436E-2,7.257747650E-2,-8.183479309E-3
8.814336319E0,1.420749724E-2,1.001818776E-1,3.594970703E-2
8.824376552E0,1.735730469E-2,8.555579185E-2,6.114959717E-3
8.834416784E0,1.626751572E-2,1.135786772E-1,5.188941956E-3
8.844487535E0,3.215941042E-2,1.196700931E-1,8.107185364E-2
8.854527768E0,4.763329402E-2,1.019546390E-1,7.100391388E-2
8.864568001E0,5.210231990E-2,4.354608059E-2,-1.064968109E-2
8.874608233E0,1.673861593E-2,2.503925562E-2,-1.495685577E-1
8.884648467E0,7.350929081E-3,1.738655567E-2,-1.829500198E-1
8.894688700E0,1.748338342E-3,1.661700010E-2,-1.705484390E-1
8.904759450E0,2.484890819E-2,3.226822615E-2,-6.684684753E-2
8.914799683E0,2.009687573E-2,6.769281626E-2,1.304235458E-1
8.924839916E0,2.469650656E-2,4.398393631E-2,2.151317596E-1
8.934880149E0,3.824097663E-2,4.352581501E-2,2.349958420E-1
8.944920382E0,5.798880011E-2,9.934902191E-4,1.587867737E-1
8.954960615E0,1.944108307E-2,-1.786422729E-2,2.010917664E-2
8.965031365E0,1.166257262E-2,-9.623885155E-3,-3.249740601E-2
8.975071599E0,3.574293107E-2,-3.931939602E-2,-3.472137451E-2
8.985111832E0,3.244498372E-2,-3.157579899E-2,-3.191184998E-2
8.995152064E0,2.080984414E-2,-5.383741856E-2,-2.554893494E-3
9.005192297E0,2.429080009E-2,-8.948040009E-2,1.263523102E-2
9.015263048E0,2.301903814E-2,-9.146940708E-2,4.468059540E-2
9.025303280E0,2.474135160E-2,-7.625782490E-2,1.458168030E-2
9.035343513E0,-3.468856215E-3,-5.479848385E-2,5.971908569E-3
9.045383747E0,7.977858186E-3,-2.409029007E-2,-5.290126801E-2
9.055423980E0,-6.514266133E-3,2.311825752E-3,3.288269043E-3
9.065464213E0,9.220555425E-3,5.746698380E-2,-2.900695801E-2
9.075534963E0,2.747415006E-2,6.943893433E-2,-3.969097137E-2
9.085575196E0,6.112078577E-2,5.748081207E-2,-2.637863159E-2
9.095615429E0,2.780120075E-2,1.751577854E-2,7.569694519E-2
9.105655662E0,4.310654104E-2,-4.146838188E-2,1.515083313E-1
9.115695895E0,2.326957881E-2,-8.150315285E-2,1.148090363E-1
9.125736128E0,7.247537374E-3,-1.038300991E-1,-3.218269348E-2
9.135776361E0,4.636190087E-2,-8.995568752E-2,-1.435184479E-1
9.145847111E0,6.091349572E-2,-4.378390312E-2,-6.304550171E-2
9.155887344E0,1.674880683E-1,2.229046822E-2,1.276206970E-2
9.165927577E0,-8.249263465E-2,5.619287491E-2,1.340389252E-1
9.175967810E0,8.768703789E-2,6.417930126E-2,1.089067459E-1
9.186008044E0,6.539503485E-2,7.301890850E-2,1.410560608E-1
9.196048276E0,7.763694972E-2,3.767681122E-2,1.307678223E-2
9.206119027E0,4.456394911E-2,7.502317429E-3,1.031293869E-1
9.216159260E0,8.714239299E-2,2.959442139E-2,4.710292816E-2
9.226199493E0,7.543550432E-2,2.714753151E-2,1.035623550E-1
9.236239725E0,3.606946021E-2,4.333579540E-2,-4.167556763E-4
9.246279958E0,3.929660469E-2,2.742660046E-2,5.108928680E-2
9.256320192E0,3.748194128E-2,2.278566360E-2,6.898689270E-2
9.266360425E0,4.274395108E-2,3.590238094E-2,6.272220612E-2
9.276431175E0,7.843837142E-3,5.038690567E-2,6.030082703E-3
9.286471408E0,-3.140851855E-3,4.490864277E-2,7.131958008E-2
9.296511641E0,-4.542097449E-3,1.040041447E-2,8.151149750E-2
9.306551874E0,-1.792223752E-2,9.912729263E-3,2.911949158E-2
9.316592106E0,-5.591556430E-3,-4.117465019E-2,1.737594604E-2
9.326632340E0,-4.631049931E-2,-3.283083439E-2,5.344772339E-2
9.336672573E0,7.637888193E-4,-5.295825005E-2,9.196949005E-2
9.346743324E0,1.253800094E-2,-4.197478294E-2,1.559734344E-2
9.356783556E0,-3.557413816E-3,-2.330970764E-2,-4.627799988E-2
9.366823789E0,1.695142686E-2,-2.743113041E-2,-9.831142426E-2
9.376864022E0,4.219678789E-2,-2.177238464E-3,-6.878757477E-2
9.386904255E0,4.704497010E-2,9.034752846E-3,-5.672454834E-3
9.396944488E0,-2.675175667E-3,1.803255081E-2,1.681518555E-2
9.406984721E0,-3.056515753E-2,2.195239067E-3,1.281261444E-2
9.417055472E0,3.398820758E-3,1.158499718E-2,-2.970886230E-2
9.427095705E0,1.064573228E-2,3.134489059E-3,-5.807971954E-2
9.437135937E0,5.656555295E-3,-1.725649834E-2,-4.812145233E-2
9.447176170E0,-1.582518220E-3,-1.596617699E-2,1.216506958E-2
9.457216403E0,-2.510568500E-2,-5.427432060E-2,5.595493317E-2
9.467256637E0,5.341917276E-3,-8.252549171E-2,1.070365906E-1
9.477327386E0,-1.690070331E-2,-9.586238861E-2,7.207202911E-2
9.487367620E0,5.862504244E-3,-9.267735481E-2,6.340885162E-2
9.497407853E0,4.917269945E-2,-9.359502792E-2,9.081935883E-2
9.507448086E0,3.726572543E-2,-9.182024002E-2,6.086158752E-2
9.517488318E0,3.065913916E-2,-6.838369370E-2,-3.846645355E-2
9.527528551E0,1.626616716E-2,-4.385113716E-2,1.420907974E-1
9.537568785E0,6.372347474E-2,-4.706048965E-2,2.343082428E-1
9.547639535E0,4.994221777E-2,-7.967233658E-3,6.059169769E-2
9.557679768E0,2.005134523E-2,2.595853806E-2,4.664039612E-2
9.567720001E0,1.813082397E-2,4.461431503E-2,1.019535065E-1
9.577760234E0,5.085255206E-2,6.286525726E-2,4.228115082E-2
9.587800467E0,4.208488017E-2,6.700348854E-2,-6.517696381E-2
9.597840699E0,1.866763830E-2,6.863141060E-2,-4.815578461E-2
9.607880933E0,1.461908221E-3,8.555316925E-2,8.583354950E-2
9.617951683E0,5.685389042E-3,6.087589264E-2,1.387853622E-1
9.627991917E0,-9.107887745E-4,8.941006660E-2,1.171026230E-1
9.638032149E0,6.023496389E-3,8.423447609E-2,1.169557571E-1
9.648072382E0,1.997070014E-2,7.476234436E-2,9.538745880E-2
9.658112615E0,-4.507496953E-3,5.215716362E-2,6.694412231E-2
9.668152848E0,2.927954495E-2,2.117371559E-2,1.005458832E-2
9.678193081E0,-8.910536766E-3,-1.592397690E-3,8.271980286E-2
9.688233314E0,1.044748724E-2,-2.765083313E-2,2.170085907E-2
9.698304065E0,-1.092687249E-3,-3.840398788E-2,2.080059052E-2
9.708344298E0,1.541136205E-2,-6.564640999E-2,8.941555023E-2
9.718384530E0,1.542863250E-2,-5.818009377E-2,5.720233917E-2
9.728424763E0,-2.255886793E-3,-4.974722862E-2,1.270103455E-2
9.738464996E0,-9.519159794E-3,-4.437327385E-2,-7.024478912E-2
9.748505230E0,1.589837670E-2,-3.433108330E-2,-8.857345581E-2
9.758545463E0,-3.965616226E-3,-7.943224907E-2,-2.487754822E-2
9.768616213E0,-1.129657030E-4,-4.572129250E-2,2.875328064E-3
9.778656446E0,2.015890181E-2,-5.727076530E-2,5.225372314E-2
9.788696679E0,2.537745237E-2,-6.943321228E-2,6.317710876E-2
9.798736911E0,3.643488884E-2,-6.037473679E-2,9.971332550E-2
9.808777144E0,1.851308346E-2,-5.067038536E-2,9.748649597E-2
9.818817378E0,4.097861797E-2,-3.754234314E-2,-1.780395508E-1
9.828857611E0,3.717483580E-2,-6.318020821E-2,-2.597484589E-1
9.838928361E0,2.445340157E-2,-7.966518402E-2,-6.557464600E-2
9.848968594E0,2.980668843E-2,-5.362963676E-2,3.814411163E-2
9.859008827E0,1.235693693E-2,2.501153946E-2,8.441829681E-2
9.869049060E0,4.547003657E-2,4.951786995E-2,5.369853973E-2
9.879089293E0,4.533525556E-2,4.169559479E-2,4.112148285E-2
9.889129526E0,4.062642157E-2,4.535722733E-2,5.236148834E-2
9.899169759E0,2.749554813E-2,2.059912682E-2,-5.721092224E-3
9.909209992E0,2.269673347E-2,2.222990990E-2,-3.503417969E-2
9.919280742E0,3.262017667E-2,2.169537544E-2,1.713085175E-2
9.929320975E0,2.304069698E-2,2.744555473E-2,5.467987061E-2
9.939361208E0,2.926935256E-2,5.739426613E-2,-4.963493347E-2
9.949401441E0,2.261440456E-2,8.918023109E-2,-9.253787994E-2
9.959441675E0,2.714774013E-2,6.097102165E-2,3.622436523E-2
9.969481907E0,5.296047777E-2,6.891965866E-2,1.230201721E-1
9.979522140E0,6.662677974E-2,8.251357079E-2,6.029033661E-2
9.989562373E0,3.307911754E-2,7.000565529E-2,3.051090240E-2
9.999633124E0,3.147292137E-2,4.283070564E-2,1.504611969E-2
1.000967336E1,2.879929543E-2,1.201629639E-2,3.106212616E-2
1.001971359E1,-1.184032857E-2,-5.028152466E-2,5.483245850E-2
1.002975382E1,4.112750292E-3,-5.067110062E-2,9.112358093E-2
1.003979406E1,2.297535539E-3,-6.821727753E-2,4.892921448E-2
1.004983429E1,7.166564465E-3,-4.585504532E-2,-1.917552948E-2
1.005987452E1,1.268379390E-2,-5.686759949E-3,-3.187179565E-3
1.006991475E1,-5.492836237E-3,4.956245422E-3,3.478145599E-2
1.007998550E1,2.593842149E-2,-4.781389236E-2,6.588554382E-2
1.009002574E1,1.885595918E-2,-5.755329132E-2,9.936237335E-2
1.010006597E1,2.882993221E-2,-1.071500778E-2,8.232975006E-2
1.011010620E1,3.896769881E-2,6.086444855E-2,-1.652908325E-2
1.012014644E1,-7.954463363E-3,7.669949532E-2,-2.218723297E-2
1.013018667E1,-3.321962059E-2,1.724815369E-2,9.461784363E-2
1.014022690E1,-2.932469547E-2,-2.646756172E-2,1.064510345E-1
1.015029765E1,-1.557220519E-2,-4.089760780E-2,-1.270294189E-3
1.016033789E1,-1.225987971E-1,-2.843379974E-3,-4.432392120E-2
1.017037812E1,2.126194537E-2,-7.289457321E-2,-4.145145416E-2
1.018041835E1,-8.257627487E-3,-5.288696289E-2,1.886520386E-1
1.019045858E1,5.529321730E-2,-4.934692383E-2,1.411018372E-1
1.020049882E1,-2.288435400E-2,-2.848625183E-3,1.146125793E-2
1.021053905E1,2.613821626E-2,-9.035825729E-3,-8.534622192E-2
1.022057928E1,3.917901218E-2,-4.500770569E-2,7.438373566E-2
1.023065003E1,3.837393224E-2,-1.749515533E-2,-1.103105545E-1
1.024069027E1,6.030638516E-2,-2.070522308E-2,-1.225385666E-1
1.025073050E1,2.188102901E-2,-3.072500229E-3,-1.445426941E-1
1.026077073E1,-3.535392880E-2,5.422329903E-2,-2.794933319E-2
1.027081097E1,2.432210743E-2,9.114289284E-2,9.725284576E-2
1.028085120E1,4.297982156E-2,9.414720535E-2,7.937622070E-2
1.029089143E1,3.943885863E-2,9.281873703E-2,1.724910736E-2
1.030096218E1,4.759162664E-2,8.090686798E-2,-2.119636536E-2
1.031100242E1,4.906821251E-2,2.792286873E-2,1.450061798E-2
1.032104265E1,1.340191066E-2,-1.751422882E-3,5.245971680E-2
1.033108288E1,5.693498254E-2,-8.661985397E-3,2.788066864E-2
1.034112311E1,3.861927986E-2,-1.704239845E-2,-2.578449249E-2
1.035116335E1,3.452375531E-2,2.814912796E-2,-7.502746582E-2
1.036123410E1,4.869848490E-2,4.095673561E-2,-4.796981812E-2
1.037127433E1,4.766611755E-2,4.770898819E-2,9.905815125E-3
1.038131456E1,1.363115013E-2,4.221296310E-2,3.902435303E-2
1.039135480E1,3.722973168E-2,5.569171906E-2,-1.294136047E-3
1.040139503E1,3.691153228E-2,5.745863914E-2,2.552223206E-2
1.041143526E1,1.763589680E-2,2.052164078E-2,1.926422119E-4
1.042147550E1,3.890794516E-2,1.399683952E-2,-3.907012939E-2
1.043151573E1,6.558496505E-2,4.528284073E-3,-6.109523773E-2
1.044158648E1,7.599512488E-2,-2.051234245E-2,6.323814392E-2
1.045162671E1,6.065681577E-2,-4.489421844E-3,1.493721008E-1
1.046166695E1,3.463152051E-2,1.242709160E-2,2.445220947E-2
1.047170718E1,3.589454293E-2,6.638050079E-3,-1.414566040E-1
1.048174741E1,3.944998980E-2,-1.549863815E-2,-8.219528198E-2
1.049178764E1,3.680741787E-2,-1.909470558E-2,3.258419037E-2
1.050182788E1,2.152052522E-2,-5.261898041E-3,9.968090057E-2
1.051189863E1,3.301739693E-2,3.193616867E-3,8.286476135E-2
1.052193886E1,6.349742413E-3,1.099348068E-3,8.259868622E-2
1.053197909E1,1.940988004E-2,3.618884087E-2,7.850646973E-3
1.054201933E1,1.039166749E-2,2.837634087E-2,-2.853679657E-2
1.055205956E1,-2.812236547E-3,-6.901264191E-3,-7.148742676E-3
1.056209979E1,-1.780779660E-2,-1.986265182E-2,7.190036774E-2
1.057214003E1,-2.082827687E-2,-2.788805962E-2,5.522727966E-2
1.058218026E1,-1.738151908E-2,-1.415967941E-3,1.668834686E-2
1.059225101E1,-2.402971685E-2,-7.543802261E-3,1.613330841E-2
1.060229124E1,-2.514034510E-3,-7.659912109E-3,5.124282837E-2
1.061233148E1,1.158690453E-2,8.362770081E-3,2.398586273E-2
1.062237171E1,3.273656964E-2,1.665639877E-2,1.421928406E-3
1.063241194E1,4.901301861E-2,5.108356476E-2,2.780914307E-3
1.064245217E1,3.211852908E-2,6.409215927E-2,3.772068024E-2
1.065252292E1,3.601169586E-2,9.682059288E-2,1.961421967E-2
1.066256316E1,3.434531391E-2,1.054096222E-1,1.345539093E-2
1.067260339E1,3.930664062E-2,6.619489193E-2,5.439758301E-3
1.068264362E1,5.126975477E-2,4.466342926E-2,7.903957367E-2
1.069268386E1,4.755178094E-2,2.925896645E-2,3.324604034E-2
1.070272409E1,6.474948674E-2,2.782511711E-2,-1.980304718E-2
1.071279484E1,4.802842438E-2,7.722973824E-3,-9.428977966E-2
1.072283507E1,1.927092671E-2,-2.587187290E-2,-1.111221313E-1
1.073287531E1,-8.437171578E-3,-4.176640511E-2,-2.238845825E-2
1.074291554E1,1.061859727E-2,-2.152287960E-2,8.079242706E-2
1.075295577E1,1.980721951E-3,2.217626572E-2,1.503896713E-1
1.076299600E1,2.133919299E-2,6.491446495E-2,9.004497528E-2
1.077303624E1,3.228740394E-2,6.860530376E-2,-1.353645325E-2
1.078310699E1,1.638506353E-2,5.824828148E-2,-4.282093048E-2
1.079314722E1,1.066955924E-2,6.566524506E-3,-8.849239349E-2
1.080318745E1,2.503392100E-2,1.352000237E-2,-1.315107346E-1
1.081322769E1,1.716518402E-2,-1.884150505E-2,-1.141643524E-2
1.082326792E1,1.023773849E-2,-2.857387066E-2,1.639766693E-1
1.083330815E1,4.531651735E-3,-3.609287739E-2,2.124328613E-1
1.084337890E1,1.329140365E-2,1.853597164E-2,7.125377655E-2
1.085341914E1,-1.598134637E-3,9.317398071E-4,-2.257537842E-2
1.086345937E1,-1.387178898E-2,-1.427197456E-2,-3.018283844E-2
1.087349960E1,-7.607936859E-4,-3.659904003E-2,-3.011417389E-2
1.088353984E1,6.218776107E-3,-3.975260258E-2,-1.732311249E-1
1.089358007E1,1.569211483E-2,-3.367614746E-2,-2.273855209E-1
1.090365082E1,2.728155255E-2,5.659818649E-3,-1.422948837E-1
1.091369105E1,3.179909289E-2,1.611900330E-2,3.417968750E-2
1.092373128E1,4.174970090E-2,2.739977837E-2,1.868705750E-1
1.093377152E1,2.783596516E-2,4.697442055E-2,1.980781555E-1
1.094381175E1,2.468314767E-2,5.756604671E-2,9.839725494E-2
1.095385198E1,1.771441102E-2,3.725743294E-2,2.465915680E-2
1.096392273E1,1.473416388E-2,5.223309994E-2,-1.327514648E-2
1.097396297E1,4.071742296E-4,4.620635509E-2,-3.193855286E-2
1.098400320E1,2.524778247E-2,2.673339844E-2,-7.321357727E-3
1.099404343E1,7.785111666E-4,3.891527653E-2,3.177642822E-2
1.100408367E1,2.932159603E-2,3.693580627E-2,-3.295898438E-3
1.101412390E1,4.587335140E-2,2.287101746E-2,-3.837871552E-2
1.102416413E1,1.007851958E-2,2.990460396E-2,-1.606082916E-2
1.103420436E1,2.175232768E-2,5.885601044E-3,4.457855225E-2
1.104427512E1,3.770059347E-2,7.579803467E-3,7.399272919E-2
1.105431535E1,2.283565700E-2,1.302242279E-2,4.818725586E-2
1.106435558E1,3.616996109E-2,4.560196400E-2,1.255130768E-2
1.107439581E1,5.614692718E-2,3.255081177E-2,-1.551628113E-3
1.108443605E1,5.191165954E-2,5.455958843E-2,8.717536926E-2
1.109447628E1,5.028852075E-2,4.843676090E-2,1.233501434E-1
1.110451651E1,3.618261963E-2,9.107947350E-2,4.916381836E-2
1.111458726E1,3.346046060E-2,9.608972073E-2,-7.278633118E-2
1.112462750E1,2.917938679E-2,8.126068115E-2,-1.250076294E-1
1.113466773E1,1.204249263E-2,5.199348927E-2,-6.191539764E-2
1.114470796E1,1.720334589E-2,4.291939735E-2,5.163288116E-2
1.115474820E1,5.719259381E-3,1.307022572E-2,9.827136993E-2
1.116478843E1,4.802884161E-2,-2.257025242E-2,9.686374664E-2
1.117485918E1,3.501954675E-2,7.169604301E-3,-1.012802124E-2
1.118489941E1,5.066178739E-2,1.153266430E-2,2.154350281E-2
1.119493964E1,-4.290729761E-3,3.261661530E-2,-2.097606659E-2
1.120497988E1,2.953227609E-2,2.310240269E-2,8.423805237E-3
1.121502011E1,-3.181533515E-2,9.719848633E-3,-1.708602905E-2
1.122506034E1,3.018971533E-2,4.022359848E-3,-1.826286316E-3
1.123510058E1,-1.779633760E-2,-1.304340363E-2,3.986740112E-2
1.124517133E1,1.767605543E-2,3.465056419E-3,2.564430237E-3
1.125521156E1,-1.122239232E-2,5.548715591E-3,4.427719116E-2
1.126525179E1,-2.305670083E-2,5.036234856E-3,6.968498230E-3
1.127529202E1,3.414779902E-3,2.535510063E-2,-4.092216492E-3
1.128533226E1,-4.096567631E-3,7.344484329E-3,6.397247314E-3
1.129537249E1,-2.604812384E-3,-7.238388062E-4,3.369998932E-2
1.130544324E1,1.553116739E-2,-1.579165459E-2,-2.754878998E-2
1.131548348E1,2.194360644E-2,-2.061820030E-2,-3.123474121E-2
1.132552371E1,3.325898945E-2,-1.265251637E-2,-3.958797455E-2
1.133556394E1,1.416303217E-2,1.057147980E-3,-3.822231293E-2
1.134560417E1,2.106093615E-2,3.445088863E-2,-3.439140320E-2
1.135564441E1,-1.510170102E-2,2.145981789E-2,1.752281189E-2
1.136568464E1,8.429184556E-3,3.019356728E-2,4.073238373E-2
1.137575539E1,-3.973156214E-3,3.413450718E-2,3.760719299E-2
1.138579562E1,-4.469558597E-3,2.821564674E-2,-3.858566284E-3
1.139583586E1,4.791736603E-3,2.439701557E-2,-3.338527679E-2
1.140587609E1,-4.552409053E-3,6.375908852E-3,-2.457237244E-2
1.141591632E1,-1.104049385E-2,1.719069481E-2,5.813598633E-3
1.142595655E1,-3.349363804E-3,4.048585892E-3,5.774497986E-2
1.143599679E1,8.595481515E-3,1.620090008E-2,5.687046051E-2
1.144606754E1,2.749945223E-2,3.734350204E-3,3.915500641E-2
1.145610777E1,2.513375133E-2,2.766609192E-3,9.420394897E-3
1.146614800E1,2.314669639E-2,6.257176399E-3,-3.581047058E-3
1.147618824E1,6.318606436E-2,7.273077965E-3,-3.575515747E-2
1.148622847E1,4.346546531E-2,2.495944500E-2,-6.793022156E-2
1.149626870E1,1.392702758E-2,3.353786469E-2,-6.671905518E-3
1.150630894E1,1.335859299E-2,3.991091251E-2,3.067684174E-2
1.151637969E1,1.876599342E-2,1.350557804E-2,1.112327576E-1
1.152641992E1,3.386945277E-2,1.493597031E-2,1.342296600E-1
1.153646015E1,5.295065790E-2,1.516389847E-2,8.046913147E-2
1.154650038E1,1.448367536E-2,3.086006641E-2,-6.951332092E-3
1.155654062E1,2.747714520E-2,6.004655361E-2,-4.659175873E-2
1.156658085E1,1.462605596E-2,4.723334312E-2,1.207256317E-2
1.157662109E1,-1.407355070E-3,6.890547276E-2,-3.925323486E-2
1.158666132E1,1.922629029E-2,4.219746590E-2,-9.274387360E-2
1.159673207E1,2.562742680E-2,1.468777657E-2,-2.400398254E-3
1.160677230E1,1.924449205E-2,9.076476097E-3,1.456975937E-1
1.161681253E1,3.454001248E-2,2.524459362E-2,2.124214172E-1
1.162685277E1,2.523686737E-2,6.265282631E-3,3.714466095E-2
1.163689300E1,-4.049465060E-3,-4.719734192E-3,-1.622543335E-1
1.164693323E1,9.090363979E-3,-4.153835773E-2,-2.323188782E-1
1.165697347E1,5.365416408E-3,-3.296279907E-2,-1.776361465E-1
1.166704422E1,-1.219452918E-2,-2.886831760E-2,-8.674240112E-2
1.167708445E1,1.403307915E-2,-3.513109684E-2,-1.481914520E-2
1.168712468E1,2.257589251E-2,-2.740597725E-2,1.001796722E-1
1.169716492E1,2.915176749E-2,4.738569260E-3,2.413158417E-1
1.170720515E1,4.016811401E-2,1.466524601E-2,2.576198578E-1
1.171724538E1,3.544616699E-2,3.506326675E-2,1.537847519E-1
1.172728561E1,2.038107812E-2,3.373908997E-2,2.812576294E-2
1.173735636E1,2.215040475E-2,1.516222954E-2,-5.686759949E-2
1.174739660E1,3.627557307E-2,2.596902847E-2,-5.079650879E-2
1.175743683E1,3.427901864E-2,4.036098719E-2,-1.824665070E-2
1.176747706E1,1.111817360E-2,4.157716036E-2,9.649276733E-3
1.177751730E1,4.003494978E-3,5.960541964E-2,-3.153800964E-3
1.178755753E1,-3.359884024E-3,7.741433382E-2,-2.315711975E-2
1.179759776E1,-1.085297763E-2,4.802012444E-2,-1.196479797E-2
1.180763800E1,-1.094339788E-2,4.111665487E-2,-2.700614929E-2
1.181770875E1,1.112669706E-3,3.526151180E-2,1.552200317E-2
1.182774898E1,8.170247078E-3,4.629659653E-2,1.736164093E-2
1.183778921E1,2.249998599E-2,2.218061686E-2,2.885627747E-2
1.184782944E1,3.448647261E-2,-9.065449238E-3,2.599334717E-2
1.185786968E1,5.326283723E-2,-2.339714766E-2,7.820892334E-2
1.186790991E1,1.957565546E-4,-4.078453779E-2,1.567010880E-1
1.187795014E1,7.799848914E-2,7.509291172E-3,8.179473877E-2
1.188802089E1,1.792391390E-2,2.579969168E-2,9.183883667E-3
1.189806113E1,2.773461491E-2,3.201234341E-2,-1.089134216E-1
1.190810136E1,1.497919112E-2,2.740901709E-2,-1.478710175E-1
1.191814159E1,2.676696330E-2,2.215880156E-2,-8.849430084E-2
1.192818183E1,1.444993168E-2,-1.142859459E-2,9.440422058E-3
1.193822206E1,2.543782443E-2,-2.538895607E-2,4.755496979E-2
1.194826229E1,2.670060843E-2,-3.272283077E-2,4.491710663E-2
1.195833304E1,4.268463701E-2,-2.164375782E-2,4.700756073E-2
1.196837328E1,3.096257150E-2,-6.448447704E-3,4.426288605E-2
1.197841351E1,5.328883231E-2,2.026915550E-2,5.106449127E-2
1.198845374E1,3.724458814E-2,6.080329418E-3,3.151130676E-2
1.199849397E1,2.820878476E-2,-1.049327850E-2,2.872085571E-2
1.200853421E1,1.856645942E-2,-1.308107376E-2,1.870727539E-2
1.201857444E1,2.814597636E-2,-4.069447517E-3,3.877639771E-3
1.202864519E1,4.051299393E-2,-2.482116222E-3,2.734184265E-2
1.203868542E1,1.291088015E-2,3.542423248E-3,-1.864337921E-2
1.204872566E1,1.627164334E-2,1.856547594E-2,-3.833961487E-2
1.205876589E1,-3.497806191E-2,4.036319256E-2,-1.496219635E-2
1.206880612E1,-6.053894758E-3,1.251232624E-2,-1.069927216E-2
1.207884636E1,-2.741695940E-2,2.521389723E-2,1.270961761E-2
1.208888659E1,-1.019060612E-3,9.227991104E-3,1.218318939E-2
1.209895734E1,-1.249507070E-3,-2.205014229E-3,3.797340393E-2
1.210899757E1,3.295764327E-3,2.188539505E-2,3.500652313E-2
1.211903780E1,3.654736280E-2,1.484161615E-2,-2.541732788E-2
1.212907804E1,1.314300299E-2,2.242225409E-2,-2.007484436E-3
1.213911827E1,2.256600559E-2,2.804350853E-2,6.931495667E-2
1.214915850E1,1.767005771E-2,1.505231857E-2,7.364749908E-2
1.215919874E1,4.836011678E-2,1.136827469E-2,-1.050949097E-3
1.216926949E1,3.420896083E-2,2.869451046E-2,-8.296012878E-2
1.217930972E1,-2.053929865E-2,1.961779594E-2,-4.456520081E-3
1.218934995E1,-2.057032287E-2,3.240096569E-2,-3.127479553E-2
1.219939018E1,1.477330178E-2,5.015492439E-3,1.191139221E-1
1.220943042E1,-1.415519416E-2,8.696496487E-3,3.966426849E-2
1.221947065E1,5.660866201E-2,-4.844188690E-3,7.509326935E-2
1.222951089E1,-3.153178096E-2,2.844291925E-2,9.914398193E-3
1.223955112E1,3.039579839E-2,2.052325010E-2,3.806877136E-2
1.224959135E1,-1.288071275E-2,2.654618025E-2,6.620121002E-2
1.225966210E1,7.624552399E-2,3.675389290E-2,-1.116266251E-1
1.226970233E1,6.540425122E-2,3.478217125E-2,-4.045486450E-2
1.227974257E1,5.066135526E-2,1.964449883E-2,-7.213020325E-2
1.228978280E1,-1.426890492E-2,3.081798553E-3,-4.387855530E-2
1.229982303E1,3.236760199E-2,-2.162879705E-2,-3.566741943E-3
1.230986327E1,4.549900442E-2,-5.121827126E-4,4.874134064E-2
1.231990350E1,4.073951393E-2,-1.046830416E-2,1.010723114E-1
1.232997425E1,4.134000093E-2,4.011237621E-2,9.583950043E-2
1.234001448E1,2.923253179E-2,2.440530062E-2,6.176662445E-2
1.235005472E1,-5.525499582E-3,3.153395653E-2,8.461952209E-3
1.236009495E1,-1.923768967E-2,3.577375412E-2,-4.486846924E-2
1.237013518E1,4.342833906E-2,5.684387684E-2,4.763603210E-3
1.238017541E1,4.760488868E-3,3.378766775E-2,3.535461426E-2
1.239021565E1,-9.059131145E-3,1.168835163E-2,-3.453540802E-2
1.240025588E1,-8.142732084E-3,-4.941427708E-2,-6.121921539E-2
1.241032663E1,4.903647304E-2,-1.207923889E-2,2.223682404E-2
1.242036686E1,7.743388414E-3,-2.002239227E-3,1.560544968E-1
1.243040710E1,5.689833313E-2,7.117807865E-3,1.485567093E-1
1.244044733E1,1.318898797E-2,2.259135246E-3,3.081798553E-2
1.245048756E1,9.362131357E-3,-9.105205536E-3,-8.701992035E-2
1.246052780E1,-2.200283110E-3,-1.568919420E-2,-9.232807159E-2
1.247056803E1,1.707499474E-2,1.699745655E-2,-1.574344635E-1
1.248060826E1,3.311187029E-2,2.168917656E-2,-1.147651672E-1
1.249067901E1,3.230452538E-2,3.890299797E-2,3.807258606E-2
1.250071924E1,2.134872228E-2,4.711660743E-2,1.789941788E-1
1.251075948E1,-2.012894303E-2,3.674361110E-2,2.264575958E-1
1.252079971E1,1.015276462E-2,4.036554694E-2,1.684436798E-1
1.253083994E1,4.422120377E-2,2.461126447E-2,6.241989136E-2
1.254088018E1,1.179095358E-2,-1.072698832E-2,-7.711982727E-2
1.255092041E1,4.276007786E-2,2.466857433E-3,-1.232242584E-1
1.256096064E1,6.525813043E-2,8.027136326E-3,-8.062744141E-2
1.257103139E1,3.011499345E-2,5.357420444E-2,2.755165100E-3
1.258107163E1,2.041578293E-2,6.472080946E-2,9.589195251E-3
1.259111186E1,-1.147514582E-2,7.190024853E-2,-2.696037292E-3
1.260115209E1,-5.468598753E-2,1.024006009E-1,-3.024101257E-3
1.261119233E1,-4.806891084E-2,6.738784909E-2,-5.682945251E-3
1.262123256E1,-2.253163606E-2,3.076362610E-2,6.056785583E-3
1.263127279E1,-1.577814668E-2,-1.024493575E-2,-1.333236694E-3
1.264131302E1,2.491716295E-2,-2.759784460E-3,-2.305889130E-2
1.265138377E1,1.619352400E-2,2.412149310E-2,-1.124477386E-2
1.266142401E1,1.289884001E-2,6.476685405E-2,7.737159729E-3
1.267146424E1,3.064091504E-2,5.623352528E-2,1.081600189E-1
1.268150447E1,2.353139222E-3,2.957782149E-2,1.751003265E-1
1.269154471E1,1.321002841E-2,1.210895181E-2,9.835720062E-2
1.270158494E1,1.892979443E-2,6.101608276E-3,-5.262756348E-2
1.271162517E1,1.372386515E-2,-2.570453286E-2,-1.317529678E-1
1.272169592E1,3.096260130E-2,-4.378226399E-2,-9.348869324E-2
1.273173616E1,1.924346387E-2,-3.508177400E-2,-3.596973419E-2
1.274177639E1,1.945416629E-2,-2.009186149E-2,4.794025421E-2
1.275181662E1,-9.305432439E-3,-6.467938423E-3,1.055517197E-1
1.276185686E1,2.653323859E-2,1.179268956E-2,1.176681519E-1
1.277189709E1,2.200129628E-2,2.027702332E-2,1.082353592E-1
1.278193732E1,1.051951200E-2,2.644219995E-2,8.204936981E-2
1.279197755E1,-1.511283964E-2,4.482138157E-2,8.460617065E-2
1.280204830E1,9.169295430E-3,6.665271521E-2,6.086635590E-2
1.281208854E1,3.300958127E-2,1.086216867E-1,6.828975677E-2
1.282212877E1,3.310531378E-2,1.334280074E-1,-1.039123535E-2
1.283216900E1,5.125164986E-2,1.064181328E-1,-6.726646423E-2
1.284220924E1,6.502208114E-2,7.137075067E-2,-1.071863174E-1
1.285224947E1,2.826277167E-2,3.284934163E-2,-1.421155930E-1
1.286228970E1,1.906450838E-2,-1.291632652E-2,-1.194381714E-1
1.287236045E1,1.146595925E-2,-2.808517218E-2,-9.661579132E-2
1.288240068E1,2.048491687E-2,-9.376883507E-3,-1.144104004E-1
1.289244092E1,1.390539110E-3,-5.288761854E-2,-3.875446320E-2
1.290248115E1,-3.727337718E-2,-7.511603832E-2,8.486175537E-2
1.291252138E1,-2.960873395E-2,-1.198319197E-1,9.836387634E-2
1.292256162E1,-2.253725380E-2,-1.210674047E-1,6.151390076E-2
1.293263237E1,-4.349701107E-3,-1.073383689E-1,-6.536483765E-3
1.294267260E1,1.115057617E-2,-6.694638729E-2,-1.483154297E-2
1.295271283E1,-1.334572583E-2,-8.187001944E-2,3.196811676E-2
1.296275307E1,1.994030923E-2,-2.180236578E-2,2.122974396E-2
1.297279330E1,2.712686360E-2,1.586437225E-3,1.525592804E-2
1.298283353E1,1.501284540E-2,3.418993950E-2,3.083038330E-2
1.299290428E1,4.584697634E-2,4.178589582E-2,-1.811408997E-2
1.300294452E1,5.403521657E-2,5.394381285E-2,4.766464233E-3
1.301298475E1,5.777431279E-2,3.868037462E-2,9.721946716E-2
1.302302498E1,7.285796106E-2,6.570726633E-2,1.345634460E-1
1.303306522E1,4.108977318E-2,5.538308620E-2,7.147884369E-2
1.304310545E1,3.948318958E-2,3.810614347E-2,-1.071834564E-2
1.305314568E1,4.129190743E-2,5.480724573E-2,-8.567523956E-2
1.306321643E1,4.034699500E-2,5.811876059E-2,-8.150291443E-2
1.307325666E1,7.658392191E-3,5.231589079E-2,3.792190552E-2
1.308329690E1,7.338330150E-3,5.972135067E-2,9.289073944E-2
1.309333713E1,3.084227443E-3,3.123229742E-2,7.371520996E-2
1.310337736E1,8.555114269E-3,2.815616131E-2,-5.083370209E-2
1.311341760E1,-3.302305937E-3,1.230537891E-2,-1.035919189E-1
1.312345783E1,2.693846077E-2,-1.553821564E-2,-8.927536011E-2
1.313352858E1,1.830212772E-2,-4.707467556E-2,-7.760047913E-3
1.314356881E1,2.377085388E-2,-7.776856422E-2,5.714130402E-2
1.315360905E1,1.561169326E-2,-7.292175293E-2,3.827762604E-2
1.316364928E1,2.288834751E-2,-5.632591248E-2,1.412944794E-1
1.317368951E1,-1.213388145E-2,-3.186941147E-3,1.124858856E-1
1.318372974E1,3.103965521E-2,-4.176855087E-3,3.085899353E-2
1.319376998E1,-2.028331161E-2,-2.538204193E-2,2.813148499E-2
1.320384073E1,1.724882424E-2,-5.639231205E-2,-5.842494965E-2
1.321388096E1,-1.660849154E-2,-7.473015785E-2,5.625534058E-2
1.322392119E1,-5.678489804E-3,-3.723001480E-2,-6.114578247E-2
1.323396143E1,5.245557427E-2,-4.658699036E-2,-4.188346863E-2
1.324400166E1,-3.313660622E-2,-3.097140789E-2,-4.395580292E-2
1.325407241E1,4.231737554E-2,-4.575753212E-2,2.351570129E-2
1.326411264E1,3.478756547E-2,-2.801346779E-2,1.363639832E-1
1.327415288E1,3.998172283E-2,-3.005754948E-2,6.957435608E-2
1.328419311E1,-7.923722267E-3,-9.173870087E-3,1.704311371E-2
1.329423334E1,1.279585063E-2,8.756160736E-3,-4.033374786E-2
1.330427357E1,1.857274771E-2,-6.883978844E-3,-8.572387695E-2
1.331431381E1,1.241500676E-2,-2.684712410E-3,-1.214036942E-1
1.332438456E1,1.579459012E-2,-3.449964523E-2,-7.526874542E-2
1.333442479E1,2.278114855E-2,-1.926672459E-2,3.580760956E-2
1.334446502E1,2.010664344E-2,3.494381905E-3,1.685361862E-1
1.335450526E1,9.261950850E-3,4.690837860E-2,2.006082535E-1
1.336454549E1,-1.710669696E-2,7.254350185E-2,1.435947418E-1
1.337458572E1,4.083302617E-2,8.629465103E-2,6.227970123E-2
1.338462596E1,3.892385960E-2,1.055349112E-1,9.454727173E-3
1.339469671E1,2.812828124E-2,6.369292736E-2,-4.314899445E-2
1.340473694E1,2.702260017E-2,3.226697445E-2,-3.573322296E-2
1.341477717E1,2.148272097E-2,4.063248634E-3,-4.206657410E-3
1.342481740E1,2.642859519E-2,-2.610838413E-2,-6.593513489E-2
1.343485764E1,-3.843098879E-3,-3.907048702E-2,4.137039185E-3
1.344492839E1,-1.253284514E-2,-7.503664494E-2,8.876991272E-2
1.345496862E1,3.123253584E-2,-5.365848541E-2,4.173755646E-2
1.346500885E1,2.270293236E-2,-6.813526154E-2,-2.845764160E-3
1.347504909E1,3.317084908E-2,-2.175414562E-2,-4.524421692E-2
1.348508932E1,1.200127602E-2,1.721930504E-2,-3.737831116E-2
1.349512955E1,9.457588196E-3,4.194390774E-2,-1.031589508E-2
1.350516979E1,2.353626490E-2,7.228016853E-2,2.367591858E-2
1.351524054E1,4.324568808E-2,2.876734734E-2,1.415748596E-1
1.352528077E1,5.838259310E-2,-2.203023434E-2,1.445655823E-1
1.353532100E1,5.114206672E-2,-2.852594852E-2,4.918575287E-2
1.354536124E1,1.898995042E-2,-4.782545567E-2,-5.591869354E-2
1.355540147E1,2.443993092E-2,-4.833996296E-2,-8.446884155E-2
1.356547222E1,5.068987608E-3,-6.338131428E-2,-6.466293335E-2
1.357551245E1,2.061176300E-2,-4.621803761E-2,8.935928345E-4
1.358555269E1,3.888447583E-2,-4.945874214E-2,-9.904861450E-3
1.359559292E1,2.164426446E-2,6.021976471E-3,1.981925964E-2
1.360563315E1,2.987094223E-2,-8.680224419E-3,4.941177368E-2
1.361567339E1,9.361580014E-3,7.056832314E-3,4.537677765E-2
1.362571362E1,1.287457347E-2,2.575993538E-3,3.636837006E-2
1.363578437E1,-2.707496285E-3,6.886959076E-3,7.989692688E-2
1.364582460E1,-3.771431744E-2,-2.073454857E-2,7.299900055E-2
1.365586483E1,-3.270637989E-2,-1.639640331E-2,7.296848297E-2
1.366590507E1,1.803749800E-2,2.505290508E-2,3.278732300E-3
1.367594530E1,5.484738946E-2,4.453122616E-2,-9.521007538E-2
1.368598553E1,-2.836312354E-2,2.848625183E-2,-4.470825195E-3
1.369602577E1,1.273523271E-2,1.394891739E-2,3.866291046E-2
1.370609652E1,6.469383836E-3,-3.254342079E-2,-3.999423981E-2
1.371613675E1,4.873961210E-3,-6.116175652E-2,8.495330811E-3
1.372617698E1,7.016360760E-3,-6.921792030E-2,4.536533356E-2
1.373621722E1,4.250392318E-2,-3.318405151E-2,5.857658386E-2
1.374625745E1,2.853125334E-2,-4.023718834E-2,3.592205048E-2
1.375629768E1,1.651033759E-2,-1.448822021E-2,-3.954029083E-2
1.376633791E1,-5.771949887E-3,-1.111507416E-2,4.541397095E-3
1.377637815E1,2.662831545E-2,-3.112554550E-3,1.029872894E-2
1.378644890E1,3.603982925E-2,-3.379487991E-2,3.516674042E-2
1.379648913E1,4.621389508E-2,-5.008959770E-2,4.571151733E-2
1.380652936E1,4.976372421E-2,-1.465582848E-2,-4.208660126E-2
1.381656960E1,1.003639400E-2,1.007723808E-2,-1.181535721E-1
1.382660983E1,-6.934314966E-3,1.095318794E-2,-2.900505066E-2
1.383665006E1,-1.978799701E-2,5.299091339E-3,9.860992432E-2
1.384669030E1,-1.267480850E-2,1.826691628E-2,1.614894867E-1
1.385676105E1,3.757539392E-2,1.424288750E-2,4.237556458E-2
1.386680128E1,1.121090353E-2,4.521369934E-3,-3.623390198E-2
1.387684151E1,2.941608429E-3,1.107501984E-2,1.432418823E-2
1.388688174E1,3.276103735E-2,-2.936840057E-2,9.144115448E-2
1.389692198E1,4.470226169E-2,-2.399945259E-2,2.741718292E-2
1.390696221E1,3.379574418E-2,2.768731117E-2,-9.680366516E-2
1.391700244E1,-4.998818040E-3,4.729342461E-2,-5.363559723E-2
1.392704268E1,1.846835017E-3,-2.026557922E-5,2.218132019E-1
1.393708291E1,1.763495803E-2,-4.887342453E-3,2.624731064E-1
1.394715366E1,3.349339962E-2,-1.739716530E-2,-2.321529388E-2
1.395719389E1,2.126657963E-2,-2.036166191E-2,-7.728958130E-2
1.396723413E1,1.906163990E-2,-3.233838081E-2,5.313873291E-2
1.397727436E1,5.719199777E-2,1.981806755E-2,3.563117981E-2
1.398731459E1,2.340407670E-2,5.951046944E-2,-2.508926392E-2
1.399735482E1,2.258026600E-2,6.134533882E-2,-1.048583984E-1
1.400739506E1,3.863978386E-2,7.363748550E-2,-8.623790741E-2
1.401746581E1,2.132089436E-2,8.188843727E-2,5.707740784E-2
1.402750604E1,6.606623530E-3,7.429361343E-2,1.264152527E-1
1.403754627E1,1.573802531E-2,6.456017494E-2,4.977798462E-2
1.404758651E1,1.300610602E-2,3.736591339E-2,3.283023834E-2
1.405762674E1,5.182102323E-3,9.219408035E-3,3.000640869E-2
1.406766697E1,4.706164449E-2,-1.649284363E-2,1.043319702E-2
1.407773772E1,4.184439778E-2,1.229143143E-2,9.884834290E-3
1.408777796E1,8.762493730E-3,1.476621628E-2,4.577636719E-3
1.409781819E1,1.138718426E-2,-2.089715004E-2,-5.575084686E-2
1.410785842E1,-1.467640698E-2,-5.361604691E-2,-4.171085358E-2
1.411789866E1,-7.004439831E-4,-1.072697639E-1,-2.688980103E-2
1.412793889E1,-2.605900168E-2,-1.382961273E-1,5.049800873E-2
1.413797912E1,3.239996731E-2,-1.242473125E-1,2.963256836E-2
1.414804987E1,4.552292824E-2,-7.835006714E-2,-8.024215698E-2
1.415809010E1,-8.421599865E-3,-3.274250031E-2,-4.956054688E-2
1.416813034E1,-2.396327257E-2,1.969957352E-2,3.845596313E-2
1.417817057E1,4.449614137E-2,3.535342216E-2,9.747600555E-2
1.418821080E1,5.076155066E-3,7.056951523E-2,6.742382050E-2
1.419825104E1,5.460117757E-2,4.953861237E-2,1.184673309E-1
1.420829127E1,2.834039927E-2,4.001545906E-2,1.574306488E-1
1.421836202E1,2.023378015E-2,7.298946381E-3,-2.224073410E-1
1.422840225E1,-3.988765180E-2,4.708290100E-3,-1.531887054E-2
1.423844248E1,1.884834468E-2,1.260757446E-2,5.622005463E-2
1.424848272E1,5.352195352E-2,7.467746735E-3,2.430820465E-1
1.425852295E1,9.248763323E-3,6.314659119E-2,2.164831161E-1
1.426856319E1,1.387359202E-2,3.003931046E-2,-5.504608154E-2
1.427860342E1,-4.383727908E-3,1.962018013E-2,-6.357383728E-2
1.428864365E1,6.246238947E-3,3.381156921E-2,-8.869171143E-5
1.429871440E1,3.528919816E-2,3.786063194E-2,-2.226543427E-2
1.430875463E1,-5.654484034E-3,4.791736603E-2,-4.646587372E-2
1.431879487E1,-2.079999447E-2,-3.490090370E-2,4.678440094E-2
1.432883510E1,3.689245880E-2,-1.795983315E-2,4.882049561E-2
1.433887533E1,1.985624433E-2,-9.636402130E-3,-7.883167267E-2
1.434891557E1,2.356095612E-2,-1.955437660E-2,-8.240509033E-2
1.435895580E1,-4.436641932E-3,-4.236769676E-2,-7.235527039E-3
1.436902655E1,2.473314106E-2,-4.421949387E-2,7.734680176E-2
1.437906678E1,4.264956713E-2,-1.111936569E-2,8.443832397E-3
1.438910702E1,-1.255659759E-2,1.795411110E-2,1.332569122E-2
1.439914725E1,-6.099730730E-3,1.589894295E-2,-2.011013031E-2
1.440918748E1,9.925350547E-3,-5.017280579E-3,-8.698368073E-2
1.441922771E1,-7.017284632E-3,-4.199647903E-2,4.363059998E-3
1.442926795E1,6.331374496E-2,-1.599645615E-2,2.885437012E-2
1.443930818E1,4.310113192E-2,-2.551555634E-3,2.206707001E-2
1.444937893E1,5.124016106E-2,3.347992897E-2,1.250076294E-2
1.445941916E1,6.553459167E-2,7.625460625E-2,1.649379730E-2
1.446945940E1,5.672384053E-2,8.122467995E-2,-6.361961365E-3
1.447949963E1,2.130170166E-2,4.866385460E-2,-9.813308716E-3
1.448953986E1,3.208761662E-2,2.268218994E-2,4.643440247E-2
1.449958010E1,4.569227248E-2,5.833148956E-3,6.905078888E-2
1.450962033E1,1.651984453E-2,-6.680011749E-3,3.408813477E-2
1.451969108E1,1.070784032E-2,4.216909409E-2,-2.746009827E-2
1.452973131E1,2.553173900E-2,7.794785500E-2,1.602458954E-2
1.453977154E1,1.651570201E-2,6.795191765E-2,1.384477615E-1
1.454981178E1,2.982382476E-2,4.296135902E-2,4.763412476E-2
1.455985201E1,3.016808629E-2,2.054834366E-2,-1.340780258E-1
1.456989224E1,4.259670526E-2,-1.042127609E-2,-3.059387207E-2
1.457993248E1,5.552138388E-2,-3.921914101E-2,2.147483826E-1
1.459000323E1,6.475325674E-2,-2.676224709E-2,1.465835571E-1
1.460004346E1,2.427174151E-2,-3.569364548E-2,-8.404731750E-3
1.461008369E1,7.107689977E-3,-1.989698410E-2,-8.003330231E-2
1.462012393E1,5.773667991E-2,1.490998268E-2,-1.061906815E-1
1.463016416E1,1.362191141E-2,2.914524078E-2,-1.703691483E-1
1.464020439E1,-9.772673249E-3,4.634213448E-2,-1.362428665E-1
1.465024463E1,-5.818158388E-4,2.991867065E-2,5.825805664E-2
1.466031538E1,-2.455294132E-2,3.470039368E-2,1.928243637E-1
1.467035561E1,9.679645300E-3,2.257537842E-2,1.591444016E-1
1.468039584E1,3.910940886E-2,3.792548180E-2,9.100246429E-2
1.469043607E1,2.954748273E-2,2.633881569E-2,1.729965210E-2
1.470047631E1,2.576529980E-3,4.419708252E-2,4.613399506E-2
1.471051654E1,-8.510500193E-4,5.711460114E-2,8.453655243E-2
1.472058729E1,-1.078262925E-3,3.843784332E-2,3.767967224E-3
1.473062752E1,1.845729351E-2,4.982209206E-2,-4.789447784E-2
1.474066776E1,5.067750812E-3,6.243968010E-2,-3.696250916E-2
1.475070799E1,4.388573766E-2,8.722901344E-2,9.946823120E-3
1.476074822E1,-7.473587990E-3,9.992647171E-2,8.974075317E-3
1.477078846E1,-2.598771453E-2,3.893327713E-2,4.166126251E-2
1.478085921E1,-7.336214185E-3,1.327943802E-2,5.744647980E-2
1.479089944E1,-1.525799930E-2,-8.050203323E-3,1.328086853E-2
1.480093967E1,9.844213724E-3,-3.929209709E-2,4.961013794E-3
1.481097991E1,5.078554899E-2,-9.422302246E-4,-3.443717957E-2
1.482102014E1,6.485581398E-2,4.273271561E-2,-1.072120667E-1
1.483106037E1,7.641141862E-2,3.248882294E-2,4.657745361E-3
1.484110060E1,5.845778435E-2,2.205610275E-3,1.839666367E-1
1.485117135E1,5.134727061E-2,2.317428589E-2,1.600313187E-1
1.486121159E1,4.862813652E-2,1.072025299E-2,-8.470249176E-2
1.487125182E1,2.149908245E-2,-3.236317635E-2,-1.550903320E-1
1.488129205E1,3.591412306E-2,-4.261302948E-2,-5.745506287E-2
1.489133229E1,6.591583788E-2,-5.635523796E-2,3.333377838E-2
1.490137252E1,-5.558876693E-2,-2.500176430E-2,4.985523224E-2
1.491144327E1,8.987224847E-2,-1.695823669E-2,9.705734253E-2
1.492148350E1,3.784805536E-2,3.727197647E-3,1.941490173E-2
1.493152374E1,-1.049637794E-4,3.050518036E-2,-5.778312683E-3
1.494156397E1,3.098449111E-2,4.031538963E-2,5.040931702E-2
1.495160420E1,2.890175581E-2,6.742978096E-2,3.013610840E-2
1.496164444E1,1.355202496E-2,8.206176758E-2,-1.601600647E-2
1.497168467E1,1.273320615E-2,8.410930634E-2,5.279541016E-3
1.498175542E1,-9.460017085E-3,7.207155228E-2,2.186584473E-2
1.499179565E1,-5.583316088E-3,5.485367775E-2,4.077529907E-2
1.500183588E1,-2.124364674E-2,3.692579269E-2,2.602386475E-2
1.501187612E1,-1.627790928E-2,5.355262756E-2,3.972053528E-2
1.502191635E1,-1.203645766E-2,3.100013733E-2,3.409099579E-2
1.503195658E1,1.339775324E-2,2.498817444E-2,4.040718079E-2
1.504202733E1,3.479942679E-2,4.262053967E-2,2.515411377E-2
1.505206757E1,3.298532963E-2,4.405760765E-2,4.357433319E-2
1.506210780E1,4.514960945E-2,6.174969673E-2,2.599716187E-2
1.507214803E1,4.244121909E-2,9.184193611E-2,5.353641510E-2
1.508218827E1,3.256674111E-2,1.126716137E-1,4.717731476E-2
1.509222850E1,4.187747836E-3,8.472192287E-2,4.653930664E-4
1.510226873E1,2.540834248E-2,3.395104408E-2,-5.140304565E-4
1.511233948E1,2.442760766E-2,-4.642605782E-2,3.607749939E-3
1.512237972E1,8.818581700E-3,-5.089533329E-2,-3.502178192E-2
1.513241995E1,2.216069400E-2,-3.966140747E-2,-6.618881226E-2
1.514246018E1,3.258273005E-3,-6.663739681E-2,-8.727073669E-2
1.515250041E1,3.071585298E-2,-4.797685146E-2,-5.350112915E-3
1.516254065E1,5.830562115E-2,-1.003527641E-2,-2.399444580E-3
1.517261140E1,8.953630924E-3,2.957630157E-2,1.177377701E-1
1.518265163E1,-1.018247008E-2,4.124343395E-2,2.943038940E-3
1.519269186E1,4.612451792E-2,3.454172611E-2,3.150367737E-2
1.520273210E1,-2.372369170E-2,3.959417343E-2,-6.204605103E-2
1.521277233E1,5.274599046E-2,7.947802544E-3,-1.457052231E-1
1.522281256E1,7.170632482E-3,-3.317415714E-2,-7.323646545E-2
1.523285280E1,2.897843719E-2,-7.411229610E-2,6.913948059E-2
1.524289303E1,3.774739802E-2,-6.699705124E-2,2.211112976E-1
1.525296378E1,2.995704114E-2,-4.496896267E-2,1.404848099E-1
1.526300401E1,-2.048915625E-2,-4.524517059E-2,6.646537781E-2
1.527304424E1,2.308219671E-3,-1.462066174E-2,-4.870986938E-2
1.528308448E1,1.168619096E-2,-1.607584953E-2,-1.448545456E-1
1.529312471E1,-7.228136063E-3,1.725792885E-2,-1.640939713E-1
1.530316494E1,1.324161887E-3,2.325487137E-2,-1.016540527E-1
1.531320518E1,-1.654177904E-3,2.778613567E-2,3.279304504E-2
1.532324541E1,7.323250175E-3,4.861176014E-2,1.911211014E-1
1.533331616E1,1.144048572E-2,3.163981438E-2,2.869062424E-1
1.534335639E1,2.495348454E-2,5.211627483E-2,2.576828003E-1
1.535339662E1,1.372998953E-2,4.513800144E-2,1.177825928E-1
1.536343686E1,-8.560121059E-4,5.395412445E-2,-7.872581482E-3
1.537347709E1,4.067052901E-2,5.995774269E-2,-7.573127747E-2
1.538351732E1,4.607473314E-2,9.059965611E-2,-8.082485199E-2
1.539355756E1,-1.135930419E-3,9.749341011E-2,-6.633853912E-2
1.540362831E1,4.521593451E-3,9.766840935E-2,-3.463649750E-2
1.541366854E1,5.795930326E-2,9.053838253E-2,-3.849220276E-2
1.542370877E1,3.593868017E-2,8.028912544E-2,-3.967475891E-2
1.543374901E1,4.669085145E-3,5.421614647E-2,-1.197719574E-2
1.544378924E1,-5.427420139E-3,3.580820560E-2,-9.698867798E-4
1.545382947E1,1.995716989E-2,1.932072639E-2,2.193832397E-2
1.546390022E1,1.906886697E-2,1.198422909E-2,2.084636688E-2
1.547394046E1,2.534709871E-2,-1.301050186E-2,1.723670959E-2
1.548398069E1,5.503443629E-2,-2.201330662E-2,1.188583374E-1
1.549402092E1,-1.018066704E-2,-3.671240807E-2,1.509408951E-1
1.550406115E1,6.407159567E-2,-1.451158524E-2,7.027721405E-2
1.551410139E1,6.397430599E-2,-8.144736290E-3,-6.325531006E-2
1.552414162E1,-2.051457763E-3,3.605544567E-2,-1.752700806E-1
1.553421237E1,2.521336079E-2,4.231929779E-2,-1.144647598E-1
1.554425260E1,1.641842723E-2,6.655526161E-2,1.355361938E-2
1.555429284E1,4.514709115E-3,6.039690971E-2,8.899688721E-2
1.556433307E1,3.734632581E-2,3.007304668E-2,9.736919403E-2
1.557437330E1,5.492906272E-2,4.353082180E-2,8.156204224E-2
1.558441354E1,4.174888134E-2,2.732276917E-2,3.931236267E-2
1.559445377E1,4.300323129E-2,5.348432064E-2,-3.174972534E-2
1.560452452E1,3.921866417E-2,4.355406761E-2,9.705543518E-3
1.561456475E1,4.097074270E-4,7.208001614E-2,5.360317230E-2
1.562460499E1,1.151846349E-2,7.445490360E-2,2.570819855E-2
1.563464522E1,2.252146602E-2,7.444524765E-2,3.852844238E-2
1.564468545E1,1.254910231E-2,5.808663368E-2,5.142593384E-2
1.565472568E1,3.615851700E-2,3.277957439E-2,4.561424255E-3
1.566476592E1,1.950711012E-2,1.014256477E-2,1.999759674E-2
1.567483667E1,7.410690188E-3,4.465341568E-3,4.343032837E-3
1.568487690E1,2.586244792E-2,2.001857758E-2,-3.528881073E-2
1.569491713E1,8.203372359E-3,9.623885155E-3,-2.698040009E-2
1.570495737E1,-2.401213348E-2,3.049087524E-2,1.726531982E-2
1.571499760E1,-1.531541348E-3,6.283760071E-2,1.357460022E-2
1.572503783E1,1.602937281E-2,4.296779633E-2,2.910232544E-2
1.573507807E1,-1.392841339E-3,2.608394623E-2,2.556800842E-2
1.574514882E1,-5.875393748E-3,7.078170776E-3,2.927112579E-2
1.575518905E1,1.590833068E-3,-1.413106918E-2,-1.727199554E-2
1.576522928E1,1.706480980E-3,-1.852083206E-2,-1.554489136E-3
1.577526952E1,3.784909844E-3,-2.696335316E-2,-2.166366577E-2
1.578530975E1,1.768597960E-2,-1.823365688E-2,1.573944092E-2
1.579534998E1,1.019462943E-2,-2.598786354E-2,1.966381073E-2
1.580539021E1,1.246184111E-2,-2.452397346E-2,1.637363434E-2
1.581546097E1,2.193871886E-2,7.555365562E-3,-2.287673950E-2
1.582550120E1,3.829958290E-2,2.240836620E-2,1.683425903E-2
1.583554143E1,4.481245577E-2,2.035450935E-2,1.104354858E-2
1.584558166E1,8.767589927E-3,3.015363216E-2,-1.628971100E-2
1.585562190E1,2.045912296E-2,-2.713203430E-3,-1.005268097E-2
1.586566213E1,2.440226078E-2,1.477503777E-2,-2.535533905E-2
1.587573288E1,2.832490206E-2,3.222537041E-2,4.074859619E-2
1.588577311E1,1.371343434E-2,3.289419413E-2,9.489727020E-2
1.589581335E1,5.098945647E-2,3.315210342E-2,8.435726166E-2
1.590585358E1,2.817723900E-2,6.528669596E-2,9.016036987E-3
1.591589381E1,5.224794149E-3,6.369870901E-2,-2.323913574E-2
1.592593404E1,1.241788268E-3,5.988705158E-2,2.593517303E-2
1.593597428E1,1.207245141E-2,4.793602228E-2,-6.598949432E-2
1.594601451E1,1.716436446E-2,3.750115633E-2,-1.433763504E-1
1.595608526E1,1.408695430E-2,9.883224964E-3,-2.422523499E-2
1.596612549E1,1.546174288E-3,4.674196243E-4,2.028074265E-1
1.597616573E1,3.608852625E-2,4.822957516E-2,3.100957870E-1
1.598620596E1,4.706695676E-3,2.384495735E-2,1.633291245E-1
1.599624619E1,2.435380220E-2,-8.560895920E-3,-9.388732910E-2
1.600628643E1,7.907524705E-3,-2.068966627E-2,-2.482585907E-1
1.601632666E1,2.115455270E-2,-1.934134960E-2,-2.540254593E-1
1.602639741E1,3.318025172E-2,-1.595216990E-2,-1.851491928E-1
1.603643764E1,2.302885056E-3,1.126283407E-2,-1.311206818E-2
1.604647788E1,1.931259036E-2,3.190857172E-2,1.541919708E-1
1.605651811E1,3.608793020E-2,1.975142956E-2,2.926149368E-1
1.606655834E1,3.077980876E-2,4.245996475E-2,3.086280823E-1
1.607659857E1,2.462268621E-2,5.637061596E-2,1.830339432E-1
1.608666730E1,4.389403760E-2,4.260557890E-2,2.839660645E-2
1.609670753E1,3.489930183E-2,3.324371576E-2,-7.835483551E-2
1.610674777E1,2.438613027E-2,3.563910723E-2,-8.912086487E-2
1.611678800E1,1.152516156E-2,4.976123571E-2,-1.350307465E-2
1.612682823E1,3.225412220E-2,4.208314419E-2,9.627342224E-3
1.613686846E1,-3.404021263E-3,4.999506474E-2,-6.408691406E-4
1.614690870E1,-4.513673484E-3,4.674923420E-2,-2.997970581E-2
1.615694893E1,-4.340508580E-2,3.250241280E-3,-5.208778381E-2
1.616701968E1,3.389738500E-3,-4.265606403E-3,-6.221961975E-2
1.617705991E1,1.119718701E-2,-8.738875389E-3,-6.033611298E-2
1.618710015E1,6.326831877E-3,6.734251976E-3,4.216003418E-2
1.619714038E1,2.300637960E-2,1.785284281E-2,-2.769088745E-2
1.620718061E1,5.334831029E-2,3.037929535E-2,8.912944794E-2
1.621722084E1,1.694893837E-2,4.027092457E-2,4.073905945E-2
1.622726108E1,5.064275116E-2,4.889953136E-2,1.502590179E-1
1.623730131E1,-2.682684362E-2,2.898257971E-2,8.025169373E-2
1.624737206E1,8.546844870E-2,2.013671398E-2,-7.841968536E-2
1.625741229E1,-1.472642273E-2,-7.514834404E-3,-1.101293564E-1
1.626745252E1,1.459988207E-2,-1.908272505E-2,-1.608667374E-1
1.627749276E1,3.604853153E-2,-1.223713160E-2,-2.474594116E-2
1.628753299E1,1.229453832E-2,2.319157124E-3,6.113719940E-2
1.629757322E1,1.691453159E-2,2.573561668E-2,7.275009155E-2
1.630761345E1,4.799053073E-3,1.966142654E-2,6.995010376E-2
1.631765369E1,2.131052315E-2,4.349821806E-2,5.989170074E-2
1.632772444E1,1.910030097E-2,1.464855671E-2,5.702495575E-2
1.633776467E1,1.486362517E-2,1.201874018E-2,4.697799683E-2
1.634780490E1,7.622875273E-2,-2.806848288E-2,-1.569938660E-2
1.635784514E1,1.030149460E-1,6.757110357E-2,-4.027366638E-2
1.636788537E1,8.068613708E-3,7.352191210E-2,1.907253265E-2
1.637792560E1,-7.778048515E-3,6.608533859E-2,2.581310272E-2
1.638796583E1,5.309738219E-2,9.266173840E-2,3.960132599E-2
1.639800606E1,2.824306488E-3,9.095662832E-2,7.949829102E-3
1.640807681E1,2.779886127E-3,6.172770262E-2,-4.517078400E-2
1.641811705E1,-1.599081606E-2,4.936659336E-2,-6.715011597E-2
1.642815728E1,2.908803523E-3,3.050088882E-2,1.864814758E-2
1.643819751E1,7.112935185E-3,-6.139039993E-3,3.509044647E-2
1.644823774E1,-7.480055094E-3,-2.101045847E-2,1.085090637E-2
1.645827798E1,8.996047080E-3,-3.315681219E-2,3.212261200E-2
1.646831821E1,1.990869641E-3,-7.332205772E-3,4.620075226E-2
1.647838896E1,4.864037037E-3,-3.084123135E-3,7.610321045E-3
1.648842919E1,1.011772454E-2,9.479522705E-4,2.532005310E-3
1.649846943E1,1.749970764E-2,9.846210480E-3,9.428024292E-3
1.650850966E1,2.233299613E-2,4.218736291E-2,1.934051514E-3
1.651854989E1,2.230197936E-2,-1.093685627E-3,3.519535065E-2
1.652859012E1,3.021262586E-3,1.062962413E-2,3.014755249E-2
1.653866087E1,5.017019808E-3,-2.555450797E-2,-1.321029663E-2
1.654870111E1,-2.256199718E-3,-3.317615390E-2,8.074760437E-3
1.655874134E1,2.672295272E-2,1.389643550E-2,1.737689972E-2
1.656878157E1,3.444824368E-2,1.310783625E-2,1.710987091E-2
1.657882180E1,6.650581956E-3,4.532641172E-2,1.203727722E-2
1.658886204E1,4.978917539E-3,4.629611969E-2,-1.698207855E-2
1.659890227E1,9.256578982E-3,5.884400010E-2,-2.448272705E-2
1.660894250E1,1.273530722E-2,2.912572026E-2,-3.913211823E-2
1.661898274E1,2.799335867E-2,2.146971226E-2,-6.333351135E-2
1.662905348E1,2.204038203E-2,-4.811912775E-3,1.065921783E-2
1.663909372E1,1.643383503E-2,9.878814220E-3,7.509231567E-2
1.664913395E1,2.825677395E-2,1.246356964E-2,9.403991699E-2
1.665917418E1,2.422612906E-2,4.487055540E-2,8.421230316E-2
1.666921442E1,3.006309271E-2,4.730594158E-2,1.927089691E-2
1.667925465E1,2.101328224E-2,4.174593091E-2,6.966590881E-3
1.668929488E1,1.864990592E-2,3.155723214E-2,-2.208805084E-2
1.669933511E1,6.250455976E-3,3.635933995E-2,-4.632949829E-2
1.670940586E1,7.784970105E-3,3.505831957E-2,-5.855464935E-2
1.671944610E1,2.120313793E-2,2.568930387E-2,-6.593132019E-2
1.672948633E1,-7.593363523E-3,2.031889558E-2,6.563282013E-2
1.673952656E1,4.694588482E-3,2.096545696E-2,2.355566025E-1
1.674956679E1,-6.830997765E-3,6.696939468E-3,1.564626694E-1
1.675960703E1,1.933930814E-2,-2.754983306E-2,-5.444049835E-2
1.676964726E1,9.581670165E-3,-6.733798981E-2,-1.863622665E-1
1.677971801E1,9.512804449E-3,-8.188521862E-2,-2.057018280E-1
1.678975824E1,2.497702837E-3,-5.131611228E-2,-1.483478546E-1
1.679979847E1,5.378991365E-3,-3.308609128E-2,-4.542541504E-2
1.680983871E1,8.554674685E-3,9.407430887E-3,6.948280334E-2
1.681987894E1,3.321573138E-2,2.006021142E-2,2.035179138E-1
1.682991917E1,7.372722030E-3,6.426325440E-2,2.488813400E-1
1.683995940E1,4.999965429E-3,6.209379435E-2,1.672286987E-1
1.684999964E1,9.710468352E-3,2.455234528E-2,8.304023743E-2
1.686007039E1,-8.126913011E-2,-5.128711462E-2,-3.499031067E-3
1.687011062E1,1.480745971E-1,-3.017753363E-3,-1.594762802E-1
1.688015085E1,4.213356227E-2,5.880823731E-2,-1.789226532E-1
1.689019108E1,-1.029250771E-2,7.223282754E-2,-1.145238876E-1
1.690023132E1,7.641233504E-3,7.139152288E-2,-2.851486206E-2
1.691027155E1,1.314530522E-2,4.879687726E-2,1.445865631E-2
1.692031178E1,-1.249378920E-2,3.194031119E-2,5.506801605E-2
1.693035202E1,1.756080985E-2,2.967941761E-2,4.062557220E-2
1.694039225E1,2.695262432E-3,2.712279558E-2,9.421348572E-3
1.695046300E1,-4.618167877E-3,-1.621216536E-3,-7.408142090E-3
1.696050323E1,7.388085127E-3,1.528480649E-2,-2.423000336E-2
1.697054346E1,1.487859339E-2,1.826024055E-2,1.881885529E-2
1.698058370E1,1.732128114E-2,1.869952679E-2,5.946731567E-2
1.699062393E1,5.046017468E-3,3.774918616E-2,1.168565750E-1
1.700066416E1,-3.117345273E-3,4.607510567E-2,9.519767761E-2
1.701070439E1,1.250583678E-2,3.425960243E-2,-1.986122131E-2
1.702074463E1,2.155159414E-2,1.764447987E-2,-1.420936584E-1
1.703078486E1,2.131504565E-2,4.507571459E-3,-1.254281998E-1
1.704085561E1,1.591305435E-2,1.334697008E-4,1.098442078E-2
1.705089584E1,2.178571373E-2,-1.473917067E-2,6.123447418E-2
1.706093607E1,1.106691360E-2,1.082363725E-2,6.838512421E-2
1.707097631E1,1.937007159E-2,-2.636149526E-3,2.044868469E-2
1.708101654E1,3.494852781E-2,9.352415800E-3,1.319408417E-2
1.709105677E1,3.270947188E-2,-2.550154924E-3,1.074409485E-2
1.710109700E1,2.858038247E-2,-2.237901092E-3,1.070117950E-2
1.711116775E1,3.382499516E-2,1.977203786E-2,3.699398041E-2
1.712120799E1,3.177602589E-2,3.453488648E-2,8.219718933E-3
1.713124822E1,3.196097165E-2,3.240840137E-2,-1.406669617E-3
1.714128845E1,4.578163475E-2,4.408518970E-2,-1.344776154E-2
1.715132868E1,2.385428548E-2,6.460598111E-2,1.519966125E-2
1.716136892E1,-7.657378912E-2,8.362047374E-2,6.539249420E-2
1.717140915E1,3.539966792E-2,3.740289807E-2,1.503753662E-2
1.718144938E1,-4.065953195E-2,4.621689022E-2,-1.854515076E-2
1.719152013E1,2.355307341E-2,1.964639127E-2,-4.015541077E-2
1.720156037E1,-2.209058404E-2,3.611965477E-2,4.837036133E-2
1.721160060E1,8.631013334E-3,2.226047218E-2,-1.871299744E-2
1.722164083E1,2.013771981E-2,-7.881626487E-3,8.180904388E-2
1.723168106E1,-6.219282746E-3,-9.062319994E-3,-4.510879517E-2
1.724172130E1,5.041819438E-2,-2.152861655E-2,1.472663879E-2
1.725176153E1,-1.898530126E-2,-1.680022478E-2,-4.273509979E-2
1.726183228E1,7.151529193E-3,-1.142257452E-2,-8.582115173E-2
1.727187251E1,1.658958942E-2,6.384357810E-3,5.545806885E-2
1.728191274E1,1.380562037E-2,4.763574898E-2,6.264877319E-2
1.729195298E1,8.760079741E-3,2.966684103E-2,2.815246582E-3
1.730199321E1,2.776371688E-2,4.498381913E-2,1.480484009E-2
1.731203344E1,2.128010243E-2,9.140118957E-3,4.120159149E-2
1.732207367E1,1.738759130E-2,1.964491606E-2,7.001495361E-2
1.733214442E1,1.594697684E-2,4.801422358E-3,4.617977142E-2
1.734218466E1,9.933933616E-3,8.021682501E-3,3.674316406E-2
1.735222489E1,3.744589537E-2,1.260694861E-2,8.190155029E-3
1.736226512E1,1.695585996E-2,2.864049375E-2,8.416175842E-3
1.737230536E1,2.475031465E-2,1.632969081E-2,1.589965820E-2
1.738234559E1,1.564348489E-2,2.105861902E-2,4.314422607E-3
1.739238582E1,4.377745092E-3,2.643826604E-2,-6.940937042E-2
1.740245657E1,-8.927412331E-3,3.447923064E-2,-1.262550354E-1
1.741249680E1,1.802735031E-3,1.232010126E-2,-1.446418762E-1
1.742253703E1,2.807323635E-2,-7.934987545E-3,-1.340713501E-1
1.743257727E1,3.310978413E-2,-4.997009039E-2,-2.996063232E-2
1.744261750E1,4.184558988E-2,-6.542500854E-2,4.550743103E-2
1.745265773E1,3.985180706E-2,-9.822818637E-2,6.835460663E-2
1.746269796E1,3.963843733E-2,-9.344443679E-2,2.648830414E-2
1.747276872E1,3.234106302E-2,-7.039913535E-2,-2.025985718E-2
1.748280895E1,6.216980517E-3,-4.293662310E-2,-3.597164154E-2
1.749284918E1,-1.934390515E-2,-8.724176884E-2,-9.233283997E-2
1.750288941E1,1.589421928E-2,-9.108084440E-2,-3.133583069E-2
1.751292965E1,-7.476657629E-4,-6.921374798E-2,6.558990479E-2
1.752296988E1,3.322082013E-2,-1.015716791E-2,1.361551285E-1
1.753304063E1,4.827269167E-2,2.107065916E-2,1.061077118E-1
1.754308086E1,3.413010389E-2,3.327387571E-2,1.022768021E-1
1.755312109E1,3.990618140E-2,8.815944195E-3,-2.370834351E-2
1.756316133E1,2.283268422E-2,-3.937482834E-3,-9.224891663E-2
1.757320156E1,3.876736015E-2,2.030253410E-2,-9.605979919E-2
1.758324179E1,3.233630955E-2,8.259499073E-2,-7.094764709E-2
1.759328202E1,4.807175696E-2,1.238577366E-1,4.516601562E-3
1.760332226E1,5.953481048E-2,1.138934493E-1,1.519527435E-1
1.761336249E1,5.093520880E-2,1.252383590E-1,1.727180481E-1
1.762343324E1,4.194137454E-2,1.091574430E-1,1.381864548E-1
1.763347347E1,2.317395806E-2,8.504182100E-2,1.299514771E-1
1.764351370E1,2.734863758E-2,7.906854153E-2,2.588081360E-2
1.765355394E1,2.181227505E-2,4.743790627E-2,-9.726524353E-2
1.766359417E1,-2.437870204E-2,2.692723274E-2,-9.575366974E-2
1.767363440E1,-1.011252403E-2,1.276576519E-2,-1.266193390E-2
1.768367464E1,-3.323507309E-2,4.211425781E-3,2.985668182E-2
1.769371487E1,-1.558040082E-2,-1.516819000E-3,-6.552696228E-3
1.770375510E1,1.630157232E-3,-2.721905708E-3,-1.099853516E-1
1.771382585E1,1.242309809E-3,-2.732974291E-2,-8.644580841E-2
1.772386608E1,1.427632570E-2,-3.939771652E-2,-7.756233215E-3
1.773390632E1,1.986165345E-2,-6.232291460E-2,6.151294708E-2
1.774394655E1,1.412820816E-2,-4.182279110E-2,8.514404297E-2
1.775398678E1,4.389405251E-2,-4.630541801E-2,-1.339817047E-2
1.776402701E1,5.398444831E-2,-7.707977295E-2,-4.008102417E-2
1.777406725E1,5.920726806E-2,-9.495186806E-2,-1.634788513E-2
1.778410748E1,4.523567855E-2,-8.524262905E-2,4.082107544E-2
1.779414771E1,6.379091740E-2,-4.856336117E-2,4.035377502E-2
1.780421846E1,7.128884643E-2,-1.055467129E-2,-1.050662994E-2
1.781425869E1,3.140285611E-2,-4.193186760E-3,-3.505325317E-2
1.782429893E1,1.927299798E-2,2.365422249E-2,-7.152652740E-2
1.783433916E1,4.136468470E-2,1.408421993E-2,-2.166461945E-2
1.784437939E1,3.537850082E-2,1.699519157E-2,2.350997925E-2
1.785441962E1,4.627002776E-2,2.247917652E-2,2.085590363E-2
1.786445986E1,4.988226295E-2,2.547228336E-2,-1.769351959E-2
1.787450009E1,6.475469470E-2,1.468157768E-2,6.099700928E-3
1.788457084E1,7.209964842E-2,2.090299129E-2,4.192256927E-2
1.789461107E1,7.684869319E-2,4.380846024E-2,2.030563354E-2
1.790465130E1,6.543372571E-2,8.211231232E-2,-3.839492798E-3
1.791469154E1,-2.468451858E-2,9.157645702E-2,-1.115989685E-2
1.792473177E1,4.750755429E-2,5.675017834E-2,5.348300934E-2
1.793477200E1,1.091657579E-2,1.119506359E-2,3.216362000E-2
1.794481224E1,-1.580989361E-2,-1.666188240E-3,4.189777374E-2
1.795488298E1,-9.009793401E-3,6.424903870E-3,5.158329010E-2
1.796492322E1,-1.674614847E-2,8.690953255E-3,-2.982711792E-2
1.797496345E1,-1.033270359E-2,2.685642242E-2,-2.753925323E-2
1.798500368E1,-3.770989180E-2,1.610291004E-2,1.544284821E-2
1.799504392E1,-4.630024731E-2,7.726550102E-3,6.562423706E-2
1.800508415E1,-2.682974935E-2,-5.533576012E-3,2.961158752E-2
1.801515490E1,-1.198934019E-2,-2.113890648E-2,3.433799744E-2
1.802519513E1,-1.569366455E-2,-3.664767742E-2,2.235603333E-2
1.803523536E1,-1.208050549E-2,-3.794181347E-2,1.516819000E-2
1.804527560E1,-2.282048762E-2,-6.305062771E-2,7.745742798E-2
1.805531583E1,-2.519816160E-3,-7.135570049E-2,3.203868866E-2
1.806535606E1,5.722612143E-3,-6.152570248E-2,1.521301270E-2
1.807539629E1,1.800639927E-2,-2.928400040E-2,-2.579212189E-2
1.808546704E1,1.101154089E-2,9.539604187E-3,-6.448268890E-2
1.809550728E1,-3.175064921E-3,6.738901138E-4,-4.806137085E-2
1.810554751E1,-2.970397472E-3,3.017008305E-2,1.866531372E-2
1.811558774E1,4.670068622E-3,1.005232334E-2,2.567100525E-2
1.812562797E1,2.470430732E-2,2.538383007E-2,3.980827332E-2
1.813566821E1,1.340255141E-3,1.435089111E-2,9.944248199E-2
1.814573896E1,2.145558596E-2,1.269030571E-2,8.719253540E-2
1.815577919E1,2.045960724E-2,-5.601644516E-4,1.273632050E-2
1.816581942E1,4.069969058E-2,-7.419586182E-4,-1.189785004E-1
1.817585965E1,2.106675506E-2,-4.463315010E-3,-1.211509705E-1
1.818589989E1,9.560595453E-2,5.501747131E-3,-1.709089279E-1
1.819594012E1,-4.755333066E-3,2.119946480E-2,-3.846549988E-2
1.820601087E1,5.452819169E-2,-5.279183388E-3,1.420497894E-1
1.821605110E1,4.923623800E-2,-1.729214191E-2,2.388267517E-1
1.822609134E1,6.563684344E-2,-5.544817448E-2,1.681137085E-2
1.823613157E1,7.277969271E-2,-6.338274479E-2,7.673931122E-2
1.824617180E1,5.780156702E-2,-7.741343975E-2,-6.463718414E-2
1.825624255E1,7.831884921E-2,-9.400403500E-2,-1.102676392E-1
1.826628278E1,2.111263573E-2,-6.808304787E-2,-2.058382034E-1
1.827632302E1,4.294767976E-3,-2.029132843E-2,-5.712223053E-2
1.828636325E1,2.428120375E-2,-9.181380272E-3,1.772403717E-2
1.829640348E1,4.618410021E-2,2.909576893E-2,1.358871460E-1
1.830644371E1,4.086305201E-2,5.464375019E-2,1.510076523E-1
1.831648395E1,5.651029944E-2,5.262434483E-2,6.008338928E-2
1.832655470E1,2.595438063E-2,6.098449230E-2,1.433849335E-2
1.833659493E1,-5.622237921E-3,4.059565067E-2,5.238151550E-2
1.834663516E1,-1.364246011E-2,1.832246780E-3,2.115535736E-2
1.835667539E1,-1.123486459E-2,3.008460999E-2,2.826023102E-2
1.836671563E1,-3.898040950E-2,1.776802540E-2,3.542327881E-2
1.837678638E1,-2.098484337E-2,2.886033058E-2,8.080387115E-2
1.838682661E1,-1.469743252E-2,3.849649429E-2,9.956550598E-2
1.839686684E1,1.463502645E-3,2.145755291E-2,4.644870758E-2
1.840690707E1,-1.803168654E-2,8.274316788E-3,3.624629974E-2
1.841694731E1,2.882987261E-3,-3.294658661E-2,2.619266510E-2
1.842698754E1,-4.844069481E-3,-2.578902245E-2,4.281997681E-3
1.843705829E1,1.370850205E-2,-1.557111740E-3,-1.755332947E-2
1.844709852E1,1.992788911E-2,1.550436020E-2,-4.895782471E-2
1.845713876E1,4.041418433E-3,3.181600571E-2,2.242755890E-2
1.846717899E1,6.218388677E-3,1.648259163E-2,1.655178070E-1
1.847721922E1,3.081008792E-2,2.667713165E-2,1.480007172E-1
1.848725945E1,3.157439828E-2,1.650190353E-2,-4.693794250E-2
1.849729969E1,9.199947119E-3,-2.861499786E-3,-1.603717804E-1
1.850737044E1,3.813755512E-2,-1.530957222E-2,-1.224842072E-1
1.851741067E1,2.688382566E-2,-1.278972626E-2,4.296779633E-2
1.852745090E1,3.402826190E-2,-2.749109268E-2,9.632015228E-2
1.853749113E1,1.188738644E-2,-3.951168060E-2,5.876541138E-2
1.854753136E1,2.524794638E-2,-6.428933144E-2,5.217742920E-2
1.855757160E1,1.714870334E-2,-3.268170357E-2,1.424407959E-2
1.856764235E1,5.735049397E-2,-1.187276840E-2,-3.830528259E-2
1.857768258E1,3.831179440E-2,-8.529901505E-3,-7.193565369E-3
1.858772281E1,2.362126112E-2,-3.447341919E-2,7.646942139E-2
1.859776305E1,4.160878062E-2,-2.299308777E-2,6.894588470E-2
1.860780328E1,4.026408494E-2,-1.766681671E-2,6.111431122E-2
1.861784351E1,4.596245289E-2,-2.276802063E-2,-1.155185699E-2
1.862788374E1,5.197612196E-2,-1.400017738E-2,-1.728534698E-2
1.863795449E1,1.581880450E-2,-2.184438705E-2,7.759475708E-2
1.864799473E1,4.238530993E-2,-1.203346252E-2,6.495571136E-2
1.865803496E1,3.095796704E-2,-4.404544830E-3,-7.477760315E-3
1.866807519E1,4.750743508E-2,6.253480911E-3,-5.821990967E-2
1.867811542E1,3.023889661E-2,-1.307654381E-2,-2.489662170E-2
1.868818618E1,3.881533444E-2,4.412651062E-3,1.103687286E-2
1.869822641E1,3.303027153E-2,1.049017906E-2,2.317428589E-2
1.870826664E1,-8.452057838E-3,1.910948753E-2,3.057384491E-2
1.871830687E1,1.702560484E-2,8.236408234E-3,2.593326569E-2
1.872834710E1,1.226341724E-2,3.001546860E-2,-1.480007172E-2
1.873838734E1,3.464475274E-3,1.343345642E-2,-1.105899811E-1
1.874842757E1,2.134862542E-2,3.242063522E-2,-8.434295654E-2
1.875849832E1,1.538805664E-2,3.419160843E-2,2.320766449E-2
1.876853855E1,2.793210745E-2,3.921651840E-2,9.446525574E-2
1.877857878E1,2.847677469E-2,2.840471268E-2,1.246662140E-1
1.878861902E1,-1.705154777E-3,-7.234096527E-3,1.091699600E-1
1.879865925E1,2.750055492E-2,-1.144409180E-3,9.333038330E-2
1.880869948E1,-1.315055788E-2,-5.545616150E-3,7.826805115E-3
1.881877023E1,-2.467077971E-2,-5.429744720E-3,-8.731269836E-2
1.882881047E1,-4.181158543E-2,-1.439428329E-2,-1.231002808E-2
1.883885070E1,-3.114366531E-2,-1.044559479E-2,2.353353500E-1
1.884889093E1,-6.655007601E-4,-3.020739555E-2,2.891244888E-1
1.885893116E1,3.425703943E-2,-2.852773666E-2,4.296684265E-2
1.886897140E1,-2.197399735E-2,-2.240586281E-2,-3.632831573E-2
1.887904215E1,8.184015751E-3,-6.359815598E-3,-1.737117767E-2
1.888908238E1,5.097278953E-2,1.447820663E-2,-7.202339172E-2
1.889912261E1,4.003456235E-2,1.326751709E-2,-1.812915802E-1
1.890916284E1,3.608971834E-2,2.565670013E-2,-6.988811493E-2
1.891920308E1,2.584579587E-2,7.756233215E-3,1.279354095E-1
1.892924331E1,3.807842731E-2,7.273101807E-2,2.297811508E-1
1.893931406E1,2.634142339E-2,9.323024750E-2,1.798448563E-1
1.894935429E1,4.733502865E-2,7.606768608E-2,6.660461426E-2
1.895939452E1,4.324318469E-2,6.027984619E-2,2.192115784E-2
1.896943476E1,5.542477220E-2,4.869484901E-2,-8.546829224E-3
1.897947499E1,-7.947981358E-4,2.600049973E-2,-5.257606506E-3
1.898951522E1,7.789805532E-3,1.074862480E-2,7.678985596E-3
1.899958597E1,1.088529825E-4,2.576136589E-2,-1.132011414E-3
1.900962620E1,-2.352444828E-2,1.333594322E-2,-5.407333374E-3
1.901966644E1,-2.271321416E-2,-9.601831436E-3,-9.897232056E-3
1.902970667E1,-3.056630492E-3,-2.547478676E-2,-6.469154358E-2
1.903974690E1,9.076043963E-3,-5.899238586E-2,-5.686569214E-2
1.904978714E1,3.439261019E-2,-6.101417542E-2,8.495330811E-3
1.905985789E1,4.901789129E-2,-4.920554161E-2,6.652927399E-2
1.906989812E1,6.741531938E-2,-3.377270699E-2,4.765701294E-2
1.907993835E1,6.669434905E-2,-1.312804222E-2,1.395606995E-2
1.908997858E1,6.385031343E-2,1.709842682E-2,5.152606964E-2
1.910001882E1,3.624762595E-2,2.702927589E-2,1.223917007E-1
1.911005905E1,1.381289959E-2,3.127861023E-2,9.491157532E-2
1.912012980E1,1.936341822E-2,2.442765236E-2,-4.543972015E-2
1.913017003E1,4.834353924E-3,2.575945854E-2,-7.117748260E-2
1.914021026E1,7.851377130E-3,3.178119659E-2,5.633926392E-2
1.915025050E1,5.916774273E-2,5.188059807E-2,9.524726868E-2
1.916029073E1,9.109008312E-2,2.156138420E-2,7.669639587E-2
1.917033096E1,3.822162747E-3,6.724047661E-2,3.411006927E-2
1.918040171E1,6.615011394E-2,2.920293808E-2,2.508163452E-2
1.919044194E1,-6.388127804E-4,4.265260696E-2,2.031326294E-3
1.920048218E1,6.143977493E-2,1.407623291E-2,4.867362976E-2
1.921052241E1,1.709207892E-2,2.718353271E-2,4.290676117E-2
1.922056264E1,5.062168837E-2,7.929587364E-2,-1.522064209E-3
1.923060287E1,3.469944000E-3,1.075370312E-1,5.894374847E-2
1.924067362E1,-3.412857652E-3,1.181720495E-1,2.828884125E-2
1.925071386E1,2.442760766E-2,6.928813457E-2,3.892993927E-2
1.926075409E1,3.552013636E-2,1.498484612E-2,8.109283447E-2
1.927079432E1,8.683577180E-3,-5.370450020E-2,-3.663539886E-2
1.928083456E1,2.714335173E-2,-6.342887878E-2,-1.517772675E-2
1.929087479E1,1.704910398E-2,-9.051275253E-2,1.623916626E-2
1.930094554E1,-1.156683266E-2,-5.004179478E-2,3.532791138E-2
1.931098577E1,7.445350289E-3,-6.210088730E-3,2.062511444E-2
1.932102600E1,2.360060811E-3,1.923429966E-2,4.631900787E-2
1.933106624E1,-7.477030158E-3,-1.108002663E-2,5.514431000E-2
1.934110647E1,1.367476583E-2,-2.100396156E-2,8.703231812E-3
1.935114670E1,2.754785866E-2,-1.955342293E-2,-4.021739960E-2
1.936121745E1,1.478509605E-2,-4.204642773E-2,-2.446556091E-2
1.937125768E1,2.793430537E-2,-5.645942688E-2,1.542568207E-2
1.938129792E1,1.735094190E-2,-4.344153404E-2,4.837322235E-2
1.939133815E1,1.919476688E-2,8.674860001E-4,3.828811646E-2
1.940137838E1,1.583001018E-2,6.947684288E-2,6.376266479E-2
1.941141861E1,2.396434546E-3,1.044201851E-1,7.922458649E-2
1.942145885E1,7.086366415E-3,1.139328480E-1,5.135536194E-2
1.943152960E1,-2.800671756E-2,9.787964821E-2,-2.420043945E-2
1.944156983E1,1.992805302E-2,7.063543797E-2,-4.691028595E-2
1.945161006E1,3.523468971E-2,3.749930859E-2,9.825229645E-2
1.946165029E1,3.774057329E-2,4.420030117E-2,2.149724960E-1
1.947169053E1,4.874530435E-2,4.051029682E-2,1.667776108E-1
1.948173076E1,4.102668166E-2,4.019093513E-2,1.032829285E-3
1.949180151E1,1.480644196E-2,-1.127278805E-2,-7.822513580E-2
1.950184174E1,4.447662085E-2,3.543055058E-2,-1.857843399E-1
1.951188198E1,1.363968104E-2,3.258407116E-2,-2.473049164E-1
1.952192221E1,1.545545459E-2,1.357603073E-2,-1.909961700E-1
1.953196244E1,2.059192955E-2,-2.207231522E-2,-5.286216736E-2
1.954200267E1,9.784832597E-3,-2.850985527E-2,1.452159882E-1
1.955204291E1,1.842825860E-2,-3.573060036E-2,2.206830978E-1
1.956208314E1,2.460581064E-2,-2.095139027E-2,2.164545059E-1
1.957215389E1,8.618123829E-3,1.103007793E-2,1.469020844E-1
1.958219412E1,2.006961405E-2,2.556622028E-2,7.209110260E-2
1.959223435E1,2.086125314E-2,3.461861610E-2,2.593231201E-2
1.960227458E1,2.104021609E-2,2.277135849E-2,-3.206634521E-2
1.961231482E1,-2.683408558E-3,1.521217823E-2,-4.185867310E-2
1.962235505E1,1.484964043E-2,3.328311443E-2,1.311302185E-3
1.963239528E1,-5.047842860E-4,2.261042595E-2,4.159927368E-3
1.964246603E1,-2.933803946E-2,1.276326180E-2,9.550094604E-3
1.965250627E1,-3.338114917E-2,1.202225685E-3,1.266956329E-2
1.966254650E1,-1.224279404E-3,4.101514816E-3,1.581954956E-2
1.967258673E1,9.756267071E-3,-1.451349258E-2,2.138710022E-2
1.968262696E1,6.265051663E-3,2.809643745E-3,1.021194458E-2
1.969266720E1,3.297247738E-2,1.525902748E-2,1.818084717E-2
1.970273795E1,5.592893437E-2,8.573293686E-3,7.164096832E-2
1.971277818E1,4.246122390E-2,3.722918034E-2,1.130609512E-1
1.972281841E1,2.407399565E-2,4.413628578E-2,9.461212158E-2
1.973285864E1,3.919367492E-2,4.378187656E-2,-2.199363708E-2
1.974289888E1,4.562680423E-2,2.263522148E-2,-1.097421646E-1
1.975293911E1,2.261104435E-2,-3.708720207E-3,-7.988262177E-2
1.976297934E1,2.614714205E-3,-2.099800110E-2,5.307197571E-3
1.977305009E1,-8.364193141E-3,-1.106917858E-2,6.188297272E-2
1.978309032E1,1.134596765E-3,-1.541256905E-3,8.248710632E-2
1.979313056E1,-7.019996643E-3,-3.298997879E-3,6.216430664E-2
1.980317079E1,-1.520974934E-2,-8.502125740E-3,9.438705444E-2
1.981321102E1,5.449719727E-3,4.982233047E-3,5.952548981E-2
1.982328177E1,2.856986225E-2,1.793587208E-2,2.460861206E-2
1.983332201E1,2.786957473E-2,2.136433125E-2,3.759574890E-2
1.984336224E1,3.420258313E-2,-5.946874619E-3,9.940147400E-3
1.985340247E1,4.494646192E-2,1.903307438E-2,1.576519012E-2
1.986344270E1,3.409701586E-2,2.464377880E-2,3.354740143E-2
1.987348294E1,8.822523057E-3,1.827347279E-2,-1.090908051E-2
1.988355369E1,5.067557096E-3,6.836175919E-3,-5.106925964E-3
1.989359392E1,1.378555596E-2,-2.075672150E-3,6.297874451E-2
1.990363415E1,1.835912466E-2,8.002877235E-3,5.205535889E-2
1.991367438E1,6.674610078E-3,2.225673199E-2,9.955406189E-3
1.992371462E1,-2.121992409E-3,3.367030621E-2,1.092052460E-2
1.993375485E1,-1.508344710E-2,2.173078060E-2,3.352260590E-2
1.994382560E1,1.439302415E-2,1.502287388E-2,7.054615021E-2
1.995386583E1,1.170571893E-2,1.811099052E-2,4.056072235E-2
1.996390606E1,1.345393807E-2,9.400129318E-3,4.412364960E-2
1.997394630E1,5.600452423E-4,8.567333221E-3,2.382946014E-2
1.998398653E1,1.841703802E-2,1.288402081E-2,1.315784454E-2
1.999402676E1,2.884770930E-2,2.721548080E-2,-2.858352661E-2
2.000409751E1,3.246532008E-2,2.076017857E-2,-9.417247772E-2
2.001413775E1,2.718236297E-2,1.732778549E-2,-8.847236633E-3
2.002417798E1,1.079014689E-2,1.476800442E-2,1.316499710E-1
2.003421821E1,1.856716722E-2,1.235663891E-2,1.476707458E-1
2.004425844E1,4.634328187E-3,5.612730980E-3,1.132202148E-1
2.005429868E1,9.318053722E-3,2.141827345E-2,5.708599091E-2
2.006436943E1,1.120226085E-2,2.448493242E-2,8.063316345E-3
2.007440966E1,-1.055456698E-3,2.301329374E-2,-9.837913513E-2
2.008444989E1,2.534656972E-2,1.523548365E-2,-1.568365097E-1
